aX,aY,aZ
-0.171,0.989,1.081
-0.181,0.547,0.968
0.404,-1.353,0.945
0.597,-0.636,1.022
0.187,-0.476,1.19
-0.044,-0.279,1.171
-0.068,-0.021,1.034
-0.087,0.032,1.005
-0.106,0.019,1.008
-0.098,0.005,0.983
-0.069,0.008,1.035
-0.062,-0.045,1.093
-0.068,-0.038,1.084
-0.109,-0.02,1.085
-0.206,0.003,1.054
-0.212,-0.002,1.043
-0.186,0.078,1.157
-0.14,0.069,1.187
-0.188,0.026,1.109
-0.207,-0.032,0.921
-0.168,-0.029,0.941
-0.099,-0.024,0.974
-0.069,-0.027,1.052
-0.042,-0.067,1.064
0.01,-0.109,1.075
0.053,-0.061,1.118
0.097,-0.03,1.095
0.003,-0.064,1.02
0.024,-0.016,0.91
-0.007,0.018,1.041
0.115,0.083,1.099
0.145,0.125,1.059
0.124,0.157,1.034
0.1,0.177,0.995
0.226,0.248,1.123
0.279,0.234,1.262
0.383,0.192,1.32
0.443,0.063,1.39
0.448,0.124,1.665
0.572,0.241,2.198
0.534,0.093,2.17
0.557,-0.034,1.907
0.489,-0.058,1.483
0.403,0.023,1.282
0.309,0.116,0.783
0.113,0.204,0.66
0.063,0.187,0.805
0.078,0.146,0.952
0.163,0.059,1.092
0.134,0.001,0.892
0.178,-0.039,0.863
0.214,-0.035,0.86
0.26,-0.037,0.901
0.27,-0.055,0.951
0.299,-0.082,1.128
0.333,-0.19,1.229
0.29,-0.214,1.205
0.276,-0.183,1.16
0.222,-0.074,1.078
0.209,0.569,0.865
0.081,1.487,0.206
0.197,1.016,-0.042
0.35,0.202,0.691
0.177,0.035,1.053
0.112,0.044,1.326
0.139,0.123,1.132
0.213,0.306,1.063
0.194,0.492,1.086
0.095,0.444,1.181
0.053,0.481,1.099
0.327,0.498,0.766
0.639,0.447,0.672
0.857,0.503,0.596
1.165,0.543,0.618
0.958,0.427,0.681
0.753,0.355,0.787
0.676,0.3,0.84
0.547,0.306,0.915
0.481,0.279,1.071
0.447,0.359,1.1
0.389,0.412,1.097
0.268,0.403,1.073
0.164,0.411,1.01
0.124,0.583,0.85
0.188,0.81,0.99
0.218,0.755,0.863
0.232,0.671,0.39
0.321,0.571,0.351
0.372,0.397,0.198
0.371,0.475,0.201
0.386,0.628,0.456
0.427,0.906,0.592
0.451,0.936,0.82
0.471,0.828,0.796
0.541,0.693,0.764
0.543,0.641,0.776
0.555,0.599,0.707
0.565,0.41,0.601
0.572,0.328,0.522
0.555,0.394,0.554
0.529,0.471,0.563
0.479,0.531,0.475
0.418,0.648,0.578
0.492,0.666,0.803
0.56,0.579,0.822
0.474,0.673,0.863
0.5,0.731,0.873
0.404,0.466,0.956
0.299,0.422,0.963
0.42,0.732,0.985
0.423,0.822,0.973
0.48,0.69,0.991
0.531,0.768,0.967
0.578,0.684,0.913
0.605,0.707,0.919
0.647,0.592,0.936
0.621,0.659,0.948
0.622,0.791,1.007
0.609,0.805,0.956
0.613,0.992,0.926
0.635,0.986,0.945
0.63,1.072,0.915
0.616,1.022,0.892
0.575,0.91,0.851
0.515,0.849,0.85
0.507,0.821,0.907
0.565,0.867,0.936
0.651,0.795,0.948
0.627,0.623,0.809
0.529,0.377,0.854
0.346,-0.125,0.869
0.229,-0.777,0.771
0.276,-1.205,0.593
0.791,-0.757,0.881
1.022,-0.152,0.716
1.174,0.246,0.639
1.113,-0.003,0.747
0.793,-0.041,0.881
0.581,0.025,0.862
0.523,0.273,0.878
0.557,0.351,0.911
0.603,0.375,0.866
0.614,0.19,0.703
0.614,0.215,0.71
0.618,0.151,0.819
0.64,0.171,0.785
0.677,0.178,0.75
0.674,0.128,0.692
0.663,0.111,0.699
0.631,0.069,0.652
0.652,0.087,0.632
0.651,0.074,0.582
0.637,0.064,0.551
0.613,0.053,0.524
0.574,0.054,0.502
0.555,-0.024,0.516
0.534,-0.051,0.542
0.477,-0.038,0.573
0.442,-0.075,0.596
0.423,-0.098,0.649
0.391,-0.1,0.691
0.368,-0.093,0.73
0.349,-0.114,0.802
0.339,-0.117,0.849
0.257,-0.214,0.819
0.256,-0.275,0.867
0.445,-0.236,0.994
0.501,-0.255,0.902
0.485,-0.308,0.876
0.412,-0.414,0.849
0.394,-0.468,0.828
0.398,-0.491,0.79
0.368,-0.515,0.764
0.346,-0.554,0.704
0.293,-0.585,0.651
0.238,-0.669,0.621
0.175,-0.753,0.544
0.164,-0.79,0.586
0.133,-0.875,0.584
0.1,-0.986,0.573
0,-1.026,0.591
-0.117,-1.083,0.736
-0.206,-1.116,0.665
-0.257,-1.17,0.738
-0.326,-1.2,0.84
-0.355,-1.257,0.886
-0.263,-1.308,0.984
-0.319,-1.331,1.074
-0.328,-1.325,1.159
-0.324,-1.384,1.187
-0.314,-1.378,1.258
-0.296,-1.357,1.296
-0.282,-1.353,1.319
-0.253,-1.345,1.327
-0.164,-1.369,1.296
-0.111,-1.408,1.192
-0.039,-1.436,1.017
0.02,-1.517,1.016
0.044,-1.699,0.925
0.081,-1.698,0.759
0.069,-1.82,0.74
0.052,-1.872,0.642
0.03,-1.954,0.603
-0.009,-1.992,0.534
-0.042,-1.983,0.566
-0.069,-1.963,0.583
-0.112,-1.921,0.602
-0.248,-1.863,0.658
-0.139,-1.828,0.712
-0.152,-1.724,0.719
-0.122,-1.673,0.786
-0.111,-1.619,0.794
-0.107,-1.578,0.715
-0.094,-1.495,0.845
-0.05,-1.374,0.793
-0.049,-1.321,0.721
-0.066,-1.244,0.706
-0.084,-1.075,0.596
-0.09,-0.996,0.662
-0.06,-0.889,0.632
-0.062,-0.735,0.663
-0.051,-0.58,0.617
-0.068,-0.506,0.627
-0.02,-0.323,0.699
0.007,-0.265,0.732
0.054,-0.154,0.709
0.074,0.035,0.767
0.131,0.102,0.802
0.171,0.261,0.804
0.026,0.472,0.747
0.054,0.572,0.655
-0.093,0.807,0.617
-0.239,1.083,0.576
-0.309,1.232,0.485
-0.678,1.728,0.351
-0.512,1.983,0.51
-0.654,2.266,0.23
-0.7,2.28,0.241
-0.603,2.28,0.737
-0.658,2.315,0.853
-0.768,2.36,0.884
-0.838,2.384,0.957
-0.993,2.396,1.027
-0.982,2.384,1.244
-0.935,2.385,1.498
-0.874,2.386,1.6
-0.82,2.408,1.723
-0.776,2.418,1.791
-0.661,2.427,1.81
-0.586,2.408,1.861
-0.415,2.382,1.853
-0.263,2.201,1.835
-0.188,2.193,1.794
0.013,2.181,1.755
0.199,2.14,1.666
0.263,2.041,1.621
0.312,1.93,1.53
0.325,1.822,1.442
0.302,1.756,1.397
0.196,1.73,1.297
0.052,1.705,1.242
-0.025,1.702,1.145
-0.196,1.704,1.063
-0.35,1.708,0.989
-0.485,1.706,0.933
-0.59,1.705,0.91
-0.649,1.665,0.864
-0.663,1.601,0.832
-0.645,1.515,0.797
-0.621,1.395,0.761
-0.589,1.28,0.733
-0.566,1.171,0.72
-0.514,1.118,0.718
-0.462,1.023,0.717
-0.405,0.941,0.724
-0.349,0.861,0.736
-0.322,0.771,0.752
-0.275,0.653,0.765
-0.249,0.59,0.758
-0.25,0.476,0.753
-0.26,0.37,0.751
-0.269,0.274,0.762
-0.304,0.227,0.775
-0.338,0.153,0.777
-0.362,0.099,0.773
-0.366,0.04,0.76
-0.374,0.005,0.627
-0.367,-0.076,0.743
-0.374,-0.124,0.724
-0.366,-0.186,0.71
-0.336,-0.284,0.72
-0.289,-0.386,0.723
-0.268,-0.441,0.725
-0.219,-0.46,0.712
-0.159,-0.512,0.725
-0.117,-0.571,0.725
-0.075,-0.663,0.73
-0.057,-0.732,0.737
-0.047,-0.747,0.864
-0.042,-0.796,0.765
-0.037,-0.828,0.817
-0.015,-0.839,0.884
-0.008,-0.866,0.918
-0.005,-0.892,0.973
-0.011,-0.901,1.017
-0.016,-0.935,1.041
-0.018,-0.967,1.07
-0.027,-0.977,1.085
-0.032,-1.004,1.089
-0.032,-1.019,1.093
-0.049,-1.028,1.085
-0.068,-1.045,1.081
-0.073,-1.031,1.06
-0.064,-1.024,1.008
-0.047,-1.026,0.981
-0.04,-1.021,0.92
-0.042,-1.02,0.858
-0.026,-1.021,0.833
-0.034,-1.021,0.784
-0.037,-1,0.755
-0.043,-0.987,0.748
-0.045,-0.959,0.741
-0.045,-0.945,0.734
-0.056,-0.907,0.73
-0.062,-0.86,0.736
-0.068,-0.835,0.765
-0.071,-0.814,0.808
-0.071,-0.781,0.867
-0.069,-0.761,0.895
-0.08,-0.71,0.915
-0.1,-0.655,0.955
-0.108,-0.63,0.985
-0.118,-0.583,1.122
-0.135,-0.508,1.028
-0.141,-0.42,1.057
-0.104,-0.415,1.081
-0.135,-0.379,1.082
-0.162,-0.292,1.08
-0.17,-0.281,1.062
-0.122,-0.268,1.057
-0.102,-0.22,1.053
-0.082,-0.193,1.052
-0.065,-0.156,1.05
-0.041,-0.143,1.042
-0.026,-0.139,1.028
-0.003,-0.138,1.024
0.015,-0.14,1.023
0.021,-0.12,1.029
0.025,-0.098,1.02
0.038,-0.097,1.026
0.047,-0.108,1.027
0.052,-0.119,1.032
0.048,-0.124,1.033
0.045,-0.133,1.033
0.043,-0.135,1.03
0.027,-0.13,1.032
0.011,-0.118,1.022
0.079,-0.893,1.052
0.065,-0.992,1.035
0.048,-1.072,1.037
0.063,-1.091,1.033
0.067,-1.146,1.021
0.073,-1.194,1.009
0.075,-1.218,1.001
0.094,-1.283,0.996
0.072,-1.293,0.984
0.072,-1.32,0.959
0.092,-1.388,0.956
0.098,-1.454,0.956
0.105,-1.479,0.966
0.118,-1.531,0.967
0.131,-1.586,0.958
0.137,-1.641,0.951
0.142,-1.665,0.948
0.145,-1.678,0.924
0.129,-1.667,0.941
0.074,-1.622,0.967
0.1,-1.624,0.94
0.05,-1.629,0.936
0.021,-1.519,0.933
0.017,-1.489,0.896
-0.022,-1.443,0.868
-0.102,-1.409,0.824
-0.169,-1.32,0.801
-0.213,-1.204,0.745
-0.248,-1.101,0.716
-0.28,-0.953,0.7
-0.305,-0.767,0.656
-0.388,-0.54,0.599
-0.457,-0.437,0.573
-0.496,-0.178,0.518
-0.516,0.074,0.44
-0.659,0.181,0.393
-0.894,0.694,-0.056
-0.961,0.846,-0.004
-1.142,1.133,-0.307
-1.183,1.319,-0.279
-1.141,1.425,-0.07
-1.258,1.919,-0.12
-1.165,2.174,0.031
-1.137,2.278,0.253
-1.217,2.294,0.305
-1.164,2.206,0.72
-1.163,2.417,1.15
-1.232,2.662,1.364
-1.112,3.057,1.48
-1.02,3.383,1.628
-0.847,3.515,1.715
-0.653,3.628,1.773
-0.53,3.585,1.952
-0.188,3.474,2.135
0.143,3.304,2.193
0.314,3.03,2.224
0.663,2.826,2.27
0.853,2.524,2.368
1.124,2.379,2.326
1.314,2.088,2.319
1.362,1.943,2.322
1.341,1.705,2.337
1.287,1.5,2.359
1.118,1.426,2.38
0.853,1.36,2.382
0.699,1.361,2.356
0.34,1.384,2.309
0.137,1.443,2.173
-0.276,1.494,2.092
-0.653,1.616,1.917
-0.819,1.806,1.657
-1.064,1.877,1.459
-1.165,1.889,1.402
-1.187,1.864,1.238
-1.225,1.858,0.936
-1.105,1.675,0.944
-1.072,1.618,0.851
-0.987,1.581,0.68
-0.891,1.417,0.609
-0.798,1.307,0.538
-0.697,1.29,0.548
-0.635,1.137,0.514
-0.631,1.057,0.496
-0.573,1.013,0.5
-0.503,0.933,0.52
-0.473,0.845,0.581
-0.412,0.782,0.653
-0.342,0.621,0.689
-0.315,0.447,0.735
-0.298,0.37,0.755
-0.303,0.244,0.798
-0.303,0.129,0.833
-0.298,0.075,0.842
-0.289,0.008,0.858
-0.291,-0.027,0.832
-0.309,-0.201,0.824
-0.296,-0.321,0.8
-0.286,-0.485,0.783
-0.264,-0.414,0.772
-0.247,-0.5,0.758
-0.243,-0.563,0.768
-0.238,-0.583,0.771
-0.201,-0.651,0.819
-0.235,-0.654,0.792
-0.222,-0.75,0.821
-0.195,-0.713,0.874
-0.175,-0.727,0.909
-0.187,-0.699,0.922
-0.213,-0.695,0.942
-0.216,-0.697,0.961
-0.15,-0.76,1.005
-0.121,-0.799,1.021
-0.072,-0.857,1.018
-0.037,-0.903,1.038
-0.025,-0.934,1.058
0.004,-0.945,1.088
0.051,-0.869,1.098
0.072,-0.957,1.076
0.089,-1.033,1.078
0.135,-1.057,1.055
0.135,-1.088,1.029
0.146,-1.097,1.012
0.167,-1.073,1.012
0.171,-1.081,0.978
0.148,-1.074,0.929
0.126,-1.109,0.904
0.118,-1.109,0.857
0.089,-1.09,0.83
0.071,-1.056,0.783
0.062,-1.021,0.75
0.036,-1.004,0.729
-0.008,-0.962,0.725
-0.027,-0.913,0.735
-0.053,-0.888,0.762
-0.057,-0.845,0.778
-0.05,-0.825,0.809
-0.048,-0.807,0.834
-0.037,-0.78,0.86
-0.028,-0.734,0.89
-0.012,-0.692,0.91
0.01,-0.659,0.925
0.023,-0.625,0.931
0.026,-0.608,0.924
0.03,-0.57,0.924
0.045,-0.533,0.93
0.051,-0.499,0.934
0.063,-0.469,0.931
0.077,-0.45,0.922
0.094,-0.439,0.913
0.101,-0.417,0.912
0.102,-0.391,0.916
0.106,-0.372,0.922
0.109,-0.363,0.92
0.104,-0.348,0.925
0.098,-0.332,0.925
0.09,-0.309,0.925
0.072,-0.293,0.938
0.06,-0.263,0.944
0.051,-0.246,0.94
0.045,-0.239,0.945
0.032,-0.237,0.947
0.028,-0.226,0.948
0.028,-0.211,0.956
0.031,-0.205,0.961
0.046,-0.2,0.979
0.054,-0.207,0.976
0.056,-0.178,0.966
0.065,-0.181,0.952
0.069,-0.188,0.954
0.09,-0.193,0.957
0.107,-0.201,0.954
0.112,-0.203,0.95
0.114,-0.2,0.951
0.11,-0.185,0.965
0.101,-0.175,0.977
0.095,-0.166,0.978
0.089,-0.173,0.97
0.065,-0.177,0.948
0.034,-0.176,0.947
0.024,-0.176,0.951
-0.011,-0.181,0.946
-0.04,-0.175,0.956
-0.044,-0.175,0.988
-0.071,-0.17,0.997
-0.09,-0.156,1.024
-0.098,-0.142,1.051
-0.102,-0.135,1.069
-0.12,-0.129,1.073
-0.129,-0.125,1.07
-0.126,-0.111,1.071
-0.091,-0.092,1.073
-0.097,-0.105,1.053
-0.093,-0.104,1.057
-0.064,-0.113,1.041
-0.056,-0.109,1.046
-0.047,-0.106,1.074
-0.032,-0.112,1.077
-0.014,-0.125,1.086
-0.012,-0.136,1.098
-0.003,-0.135,1.102
0.006,-0.142,1.108
0.011,-0.161,1.114
0.011,-0.163,1.093
0.02,-0.162,1.095
0.018,-0.175,1.078
0.017,-0.17,1.075
0.013,-0.185,1.067
0.014,-0.2,1.063
0.004,-0.211,1.05
-0.003,-0.226,1.05
-0.005,-0.233,1.065
-0.005,-0.242,1.054
-0.021,-0.267,1.044
-0.021,-0.297,1.037
-0.015,-0.31,1.015
-0.034,-0.336,0.985
-0.017,-0.333,1.007
-0.022,-0.407,0.942
-0.03,-0.414,0.937
-0.009,-0.43,0.932
-0.002,-0.467,0.918
-0.004,-0.486,0.912
-0.006,-0.524,0.911
0.003,-0.554,0.915
0.001,-0.577,0.92
-0.003,-0.595,0.935
0,-0.609,0.954
0.005,-0.62,0.965
0.01,-0.64,0.984
0.02,-0.624,1.006
0.026,-0.564,1.019
0.011,-0.715,1.041
0.004,-0.733,1.063
0.014,-0.729,1.067
0.005,-0.718,1.057
0.028,-0.785,1.08
0.021,-0.781,1.092
0.027,-0.796,1.097
0.067,-0.867,1.119
0.076,-0.921,1.118
0.083,-0.935,1.111
0.097,-0.964,1.085
0.106,-1.002,1.06
0.111,-1.033,1.038
0.11,-1.065,1.015
0.11,-1.077,0.983
0.114,-1.093,0.964
0.117,-1.101,0.934
0.123,-1.104,0.905
0.138,-1.138,0.893
0.142,-1.174,0.862
0.147,-1.179,0.852
0.155,-1.175,0.825
0.157,-1.173,0.81
0.163,-1.164,0.802
0.166,-1.16,0.789
0.177,-1.161,0.771
0.187,-1.168,0.764
0.188,-1.17,0.749
0.182,-1.169,0.738
0.177,-1.157,0.718
0.165,-1.146,0.703
0.156,-1.114,0.702
0.151,-1.068,0.703
0.134,-1.041,0.705
0.114,-0.985,0.706
0.1,-0.916,0.698
0.06,-0.873,0.691
0.01,-0.766,0.689
-0.014,-0.654,0.684
-0.057,-0.599,0.671
-0.113,-0.48,0.661
-0.143,-0.348,0.634
-0.211,-0.154,0.607
-0.29,0.132,0.408
-0.782,0.352,0.183
-0.63,0.689,0.264
-0.875,0.638,-0.061
-1.046,0.802,-0.12
-1.107,1.331,0.144
-0.837,1.314,0.3
-0.606,1.298,0.765
-0.633,1.274,1.148
-0.883,1.266,1.237
-0.929,1.492,1.369
-0.956,1.647,1.251
-0.935,2.048,1.319
-0.93,2.394,1.192
-0.813,2.55,1.212
-0.745,2.712,1.319
-0.542,2.681,1.461
-0.378,2.661,1.532
-0.26,2.587,1.683
-0.007,2.559,1.847
0.278,2.46,1.805
0.382,2.292,1.826
0.513,2.202,1.881
0.697,1.941,1.864
0.778,1.696,1.864
0.876,1.672,1.875
0.861,1.62,1.974
0.868,1.573,2.126
0.827,1.393,2.189
0.79,1.276,2.265
0.666,1.201,2.287
0.457,1.171,2.251
0.224,1.159,2.233
0.117,1.217,2.175
-0.084,1.244,2.042
-0.276,1.292,1.948
-0.45,1.342,1.737
-0.507,1.354,1.539
-0.584,1.371,1.468
-0.616,1.38,1.341
-0.622,1.389,1.267
-0.605,1.372,1.224
-0.592,1.32,1.14
-0.527,1.336,1.132
-0.6,1.398,1.009
-0.564,1.275,0.968
-0.563,1.35,0.912
-0.488,1.298,0.92
-0.462,1.279,0.917
-0.386,1.216,0.957
-0.34,1.196,0.964
-0.321,1.11,0.997
-0.247,1.043,1.034
-0.26,0.986,1.015
-0.267,0.92,1.005
-0.286,0.763,1.001
-0.314,0.678,0.993
-0.374,0.632,0.984
-0.421,0.517,0.997
-0.464,0.475,0.997
-0.478,0.443,0.984
-0.501,0.388,0.973
-0.508,0.309,0.938
-0.502,0.249,0.909
-0.485,0.127,0.86
-0.477,-0.01,0.833
-0.462,-0.129,0.801
-0.435,-0.204,0.78
-0.426,-0.255,0.774
-0.414,-0.267,0.788
-0.401,-0.284,0.791
-0.373,-0.324,0.803
-0.362,-0.387,0.816
-0.362,-0.455,0.834
-0.362,-0.504,0.856
-0.342,-0.578,0.87
-0.312,-0.643,0.9
-0.288,-0.73,0.923
-0.288,-0.755,0.94
-0.215,-0.813,0.955
-0.204,-0.936,0.865
-0.168,-0.966,0.903
-0.079,-0.983,0.904
0,-1.075,0.874
0.059,-1.108,0.867
0.115,-1.139,0.856
0.139,-1.185,0.829
0.186,-1.222,0.797
0.224,-1.276,0.785
0.233,-1.301,0.763
0.23,-1.308,0.739
0.243,-1.336,0.726
0.244,-1.346,0.708
0.232,-1.351,0.693
0.201,-1.354,0.69
0.164,-1.357,0.692
0.156,-1.364,0.693
0.113,-1.373,0.701
0.078,-1.376,0.728
0.064,-1.357,0.753
0.031,-1.345,0.774
-0.005,-1.326,0.784
-0.042,-1.279,0.807
-0.061,-1.212,0.803
-0.125,-1.231,0.795
-0.156,-1.19,0.797
-0.161,-1.093,0.788
-0.168,-1.05,0.772
-0.172,-0.969,0.769
-0.174,-0.9,0.772
-0.169,-0.855,0.778
-0.166,-0.833,0.775
-0.145,-0.793,0.764
-0.139,-0.756,0.765
-0.122,-0.739,0.778
-0.088,-0.712,0.791
-0.069,-0.684,0.814
-0.03,-0.666,0.821
-0.003,-0.641,0.827
0.034,-0.608,0.83
0.045,-0.576,0.833
0.063,-0.575,0.843
0.092,-0.537,0.854
0.104,-0.502,0.845
0.133,-0.472,0.842
0.134,-0.449,0.837
0.132,-0.433,0.819
0.148,-0.404,0.812
0.166,-0.378,0.796
0.177,-0.357,0.784
0.179,-0.336,0.771
0.188,-0.311,0.76
0.196,-0.3,0.749
0.195,-0.275,0.746
0.195,-0.25,0.74
0.199,-0.239,0.742
0.196,-0.217,0.741
0.194,-0.207,0.745
0.197,-0.199,0.749
0.207,-0.19,0.757
0.21,-0.21,0.771
0.209,-0.222,0.796
0.208,-0.19,0.814
0.207,-0.19,0.818
0.184,-0.273,0.851
0.17,-0.252,0.861
0.163,-0.244,0.875
0.148,-0.232,0.889
0.135,-0.216,0.908
0.13,-0.224,0.916
0.114,-0.256,0.934
0.101,-0.275,0.94
0.095,-0.267,0.952
0.091,-0.25,0.97
0.081,-0.238,0.983
0.07,-0.25,0.99
0.063,-0.266,1.006
0.051,-0.265,1.009
0.043,-0.251,1.013
0.041,-0.267,1.019
0.036,-0.264,1.03
0.028,-0.26,1.034
0.023,-0.261,1.048
0.02,-0.26,1.053
0.013,-0.26,1.057
0,-0.254,1.063
-0.005,-0.127,1.077
-0.007,-0.245,1.084
-0.004,-0.239,1.085
-0.007,-0.279,1.089
-0.008,-0.299,1.095
-0.006,-0.302,1.095
-0.006,-0.306,1.097
-0.01,-0.301,1.099
-0.012,-0.292,1.099
-0.011,-0.285,1.097
-0.01,-0.278,1.082
-0.007,-0.273,1.077
-0.01,-0.308,1.065
-0.009,-0.326,1.057
-0.006,-0.325,1.052
0.012,-0.309,1.054
-0.002,-0.313,1.005
-0.021,-0.269,1.008
0.031,-0.273,1.104
0.015,-0.295,1.044
-0.026,-0.292,1.02
-0.01,-0.285,1.016
0.002,-0.295,1.026
0.008,-0.293,1.036
0.01,-0.291,1.039
0.005,-0.29,1.016
-0.002,-0.278,1.016
0,-0.282,0.995
0.002,-0.282,0.999
-0.002,-0.285,0.994
-0.001,-0.277,0.997
0.002,-0.275,1.002
0.004,-0.273,1.004
0.005,-0.264,1.006
0.01,-0.26,1.012
0.017,-0.246,1.014
0.236,-0.793,1
0.257,-0.813,1.018
0.264,-0.786,1.026
0.256,-0.858,1.057
0.247,-0.939,1.081
0.253,-0.936,1.101
0.251,-0.978,1.116
0.25,-0.993,1.121
0.244,-1.023,1.131
0.236,-1.105,1.136
0.234,-1.156,1.14
0.236,-1.171,1.123
0.236,-1.2,1.119
0.225,-1.21,1.111
0.224,-1.215,1.1
0.212,-1.225,1.083
0.207,-1.284,1.071
0.202,-1.287,1.044
0.185,-1.286,1.01
0.174,-1.288,0.993
0.166,-1.289,0.968
0.157,-1.286,0.957
0.145,-1.29,0.917
0.142,-1.296,0.888
0.137,-1.294,0.847
0.135,-1.307,0.825
0.129,-1.325,0.789
0.125,-1.332,0.775
0.123,-1.324,0.743
0.123,-1.319,0.716
0.119,-1.308,0.703
0.117,-1.3,0.679
0.101,-1.295,0.651
0.065,-1.275,0.642
0.023,-1.207,0.638
-0.002,-1.115,0.65
-0.059,-1.015,0.675
-0.129,-0.96,0.697
-0.387,-0.734,0.604
-0.479,-0.516,0.373
-0.345,-0.383,0.495
-0.564,-0.372,0.12
-0.615,0.13,-0.007
-0.465,0.1,0.346
-0.623,0.251,0.522
-0.542,0.349,0.599
-0.383,0.216,0.895
-0.457,0.003,1.022
-0.661,0.064,1
-0.767,0.43,0.884
-0.936,0.657,0.722
-1.013,1.115,0.64
-1.024,1.503,0.586
-1.051,1.672,0.689
-1.064,1.983,0.75
-1.06,2.326,0.854
-1.001,2.518,0.886
-0.848,2.737,0.986
-0.771,2.838,0.978
-0.675,2.99,0.935
-0.55,2.991,0.874
-0.426,2.93,0.904
-0.344,2.803,0.895
-0.258,2.631,0.875
-0.046,2.517,1.004
0.138,2.352,1.112
0.24,2.264,1.361
0.449,2.019,1.485
0.535,1.732,1.715
0.673,1.633,1.897
0.763,1.504,1.967
0.793,1.364,2.123
0.809,1.323,2.252
0.774,1.252,2.296
0.742,1.229,2.343
0.651,1.215,2.34
0.6,1.232,2.298
0.498,1.241,2.22
0.408,1.261,2.168
0.314,1.262,2.019
0.263,1.266,1.851
0.149,1.293,1.683
0.051,1.299,1.624
-0.023,1.349,1.525
-0.142,1.415,1.482
-0.342,1.48,1.392
-0.317,1.51,1.302
-0.418,1.566,1.255
-0.464,1.615,1.171
-0.537,1.624,1.151
-0.572,1.637,1.14
-0.584,1.643,1.132
-0.611,1.631,1.124
-0.628,1.612,1.126
-0.628,1.6,1.15
-0.618,1.543,1.159
-0.623,1.442,1.154
-0.633,1.317,1.117
-0.609,1.202,1.1
-0.61,1.148,1.082
-0.598,0.998,1.053
-0.575,0.917,1.036
-0.555,0.756,1
-0.543,0.576,0.954
-0.532,0.482,0.895
-0.538,0.28,0.875
-0.55,0.108,0.843
-0.557,-0.01,0.848
-0.571,-0.072,0.862
-0.562,-0.094,0.864
-0.539,-0.153,0.861
-0.511,-0.215,0.852
-0.469,-0.269,0.834
-0.401,-0.327,0.838
-0.365,-0.407,0.842
-0.291,-0.442,0.834
-0.205,-0.505,0.831
-0.162,-0.565,0.829
-0.091,-0.574,0.813
0.239,-0.965,0.815
0.252,-0.97,0.804
0.264,-0.975,0.798
0.292,-0.976,0.781
0.331,-0.976,0.767
0.357,-0.985,0.739
0.406,-0.993,0.719
0.447,-1.014,0.713
0.465,-1.026,0.703
0.495,-1.007,0.697
0.5,-1.027,0.685
0.525,-1.094,0.676
0.514,-1.109,0.679
0.507,-1.099,0.678
0.5,-1.098,0.691
0.483,-1.099,0.705
0.473,-1.092,0.737
0.437,-1.086,0.765
0.41,-1.079,0.779
0.365,-1.067,0.804
0.31,-1.057,0.84
0.274,-1.024,0.881
0.214,-0.961,0.907
0.164,-0.904,0.951
0.136,-0.891,0.989
0.085,-0.899,1.01
0.038,-0.865,1.038
-0.005,-0.809,1.061
-0.044,-0.744,1.066
-0.055,-0.69,1.067
-0.081,-0.667,1.058
-0.118,-0.618,1.045
-0.145,-0.569,1.018
-0.146,-0.547,0.988
-0.139,-0.514,0.953
-0.125,-0.494,0.933
-0.116,-0.478,0.898
-0.092,-0.473,0.863
-0.06,-0.454,0.852
-0.043,-0.43,0.837
-0.013,-0.418,0.835
0.022,-0.394,0.835
0.055,-0.373,0.854
0.064,-0.363,0.857
0.093,-0.362,0.868
0.122,-0.357,0.88
0.134,-0.343,0.877
0.135,-0.338,0.879
0.141,-0.336,0.89
0.146,-0.329,0.897
0.145,-0.322,0.904
0.138,-0.311,0.907
0.12,-0.299,0.908
0.104,-0.279,0.908
0.062,-0.263,0.902
0.028,-0.235,0.902
0.016,-0.225,0.902
-0.007,-0.213,0.9
-0.024,-0.195,0.896
-0.031,-0.179,0.896
-0.038,-0.175,0.908
-0.04,-0.166,0.915
-0.037,-0.163,0.933
-0.03,-0.163,0.952
-0.017,-0.156,0.96
0.003,-0.156,0.988
0.016,-0.158,1.016
0.041,-0.154,1.029
0.055,-0.148,1.057
0.084,-0.149,1.071
0.108,-0.153,1.075
0.119,-0.154,1.08
0.13,-0.156,1.082
0.147,-0.157,1.105
0.158,-0.158,1.11
0.161,-0.151,1.113
0.157,-0.136,1.11
0.158,-0.13,1.104
0.156,-0.13,1.105
0.16,-0.13,1.095
0.159,-0.137,1.081
0.154,-0.15,1.068
0.144,-0.168,1.065
0.132,-0.176,1.063
0.127,-0.183,1.064
0.116,-0.19,1.067
0.111,-0.195,1.067
0.099,-0.205,1.066
0.092,-0.21,1.062
0.081,-0.214,1.054
0.075,-0.219,1.037
0.078,-0.219,1.021
0.074,-0.223,1.011
0.073,-0.23,1.005
0.075,-0.239,0.996
0.072,-0.239,0.991
0.074,-0.241,0.983
0.074,-0.241,0.976
0.077,-0.247,0.969
0.077,-0.251,0.959
0.068,-0.261,0.958
0.058,-0.26,0.956
0.054,-0.258,0.962
0.047,-0.251,0.97
0.039,-0.245,0.989
0.037,-0.244,1.006
0.036,-0.248,1.013
0.034,-0.257,1.021
0.027,-0.263,1.026
0.017,-0.263,1.025
0.015,-0.261,1.022
0.013,-0.253,1.025
0.008,-0.247,1.027
0.007,-0.237,1.029
0.005,-0.233,1.032
0,-0.228,1.031
-0.003,-0.223,1.02
-0.006,-0.222,1.007
-0.007,-0.225,1.002
0.253,-0.94,0.852
0.262,-0.997,0.853
0.27,-1.045,0.873
0.292,-1.179,0.873
0.293,-1.28,0.885
0.3,-1.316,0.882
0.287,-1.426,0.882
0.28,-1.492,0.894
0.264,-1.516,0.901
0.257,-1.567,0.94
0.256,-1.592,0.974
0.253,-1.614,0.986
0.252,-1.638,1.007
0.255,-1.757,1.039
0.252,-1.801,1.074
0.263,-1.839,1.085
0.265,-1.841,1.112
0.263,-1.878,1.13
0.23,-1.927,1.163
0.211,-1.929,1.183
0.17,-1.87,1.181
0.147,-1.862,1.173
0.081,-1.872,1.172
-0.015,-1.829,1.164
-0.059,-1.8,1.133
-0.145,-1.763,1.091
-0.243,-1.634,1.069
-0.34,-1.476,1.038
-0.623,-0.98,0.565
-0.566,-0.904,0.908
-0.759,-0.658,0.465
-0.782,-0.523,0.508
-0.57,-0.425,0.882
-0.576,-0.382,0.908
-0.69,-0.183,0.832
-0.83,-0.138,0.784
-1.041,0.159,0.707
-1.311,0.856,0.368
-1.259,1.112,0.46
-1.134,1.174,0.52
-1.14,0.941,0.613
-1.072,0.838,0.806
-1.193,1.24,0.832
-1.229,1.784,0.739
-1.14,2.031,0.769
-0.999,2.57,0.791
-0.956,3.039,0.8
-0.932,3.262,0.742
-0.933,3.568,0.662
-0.915,3.685,0.65
-0.908,3.762,0.677
-0.83,3.847,0.719
-0.623,3.846,0.915
-0.484,3.777,1.18
-0.187,3.632,1.339
-0.012,3.39,1.645
0.377,3.238,1.882
0.744,2.887,1.982
1.089,2.51,2.213
1.431,2.152,2.484
1.645,1.723,2.646
1.675,1.37,2.633
1.545,1.251,2.564
1.439,1.108,2.45
1.198,1.08,2.371
0.877,1.155,2.329
0.691,1.289,2.223
0.297,1.391,2.164
0.094,1.631,2.076
-0.296,1.737,1.919
-0.647,1.945,1.842
-0.8,2.132,1.669
-1.006,2.194,1.533
-1.112,2.224,1.459
-1.155,2.206,1.243
-1.213,2.19,1.163
-1.202,1.948,0.935
-1.183,1.879,0.8
-1.137,1.76,0.761
-1.096,1.645,0.679
-0.993,1.612,0.633
-0.972,1.495,0.613
-0.96,1.406,0.604
-0.887,1.355,0.618
-0.775,1.224,0.642
-0.717,1.098,0.725
-0.609,1.017,0.794
-0.523,0.817,0.811
-0.496,0.612,0.845
-0.455,0.525,0.858
-0.412,0.383,0.868
-0.389,0.258,0.863
-0.346,0.187,0.867
-0.297,0.074,0.858
-0.269,-0.103,0.825
-0.219,-0.077,0.818
-0.182,-0.157,0.787
-0.172,-0.245,0.755
-0.168,-0.289,0.738
-0.171,-0.37,0.734
-0.178,-0.394,0.73
-0.191,-0.382,0.719
-0.204,-0.478,0.725
-0.208,-0.577,0.76
-0.201,-0.615,0.799
-0.149,-0.702,0.81
-0.103,-0.847,0.855
-0.077,-0.922,0.896
-0.032,-0.959,0.921
0.023,-1.005,0.936
0.052,-1.012,0.97
0.102,-1.014,0.979
0.152,-1.042,1.008
0.179,-1.05,1.016
0.238,-1.066,1.012
0.265,-1.088,1.008
0.313,-1.092,1.01
0.361,-1.099,1.003
0.404,-1.108,0.995
0.435,-1.13,0.945
0.439,-1.149,0.915
0.423,-1.145,0.901
0.409,-1.119,0.873
0.387,-1.105,0.848
0.366,-1.079,0.839
0.352,-1.071,0.821
0.321,-1.066,0.805
0.305,-1.053,0.798
0.308,-1.048,0.79
0.319,-1.051,0.786
0.341,-1.06,0.784
0.375,-1.061,0.789
0.397,-1.074,0.796
0.421,-1.057,0.801
0.462,-1.049,0.809
0.48,-1.042,0.821
0.507,-1.041,0.828
0.503,-1.022,0.834
0.488,-0.881,0.833
0.445,-0.95,0.836
0.42,-0.894,0.86
0.372,-0.867,0.896
0.298,-0.807,0.908
0.258,-0.74,0.938
0.196,-0.71,0.979
0.127,-0.678,1.004
0.046,-0.62,1.055
0.022,-0.603,1.115
-0.013,-0.561,1.16
-0.046,-0.501,1.191
-0.074,-0.451,1.228
-0.088,-0.434,1.229
-0.119,-0.401,1.22
-0.128,-0.354,1.184
-0.131,-0.325,1.14
-0.126,-0.266,1.102
-0.109,-0.216,1.046
-0.105,-0.195,0.975
-0.096,-0.129,0.938
-0.073,-0.087,0.871
-0.061,-0.062,0.813
-0.031,-0.051,0.784
0.001,-0.034,0.739
0.017,-0.015,0.705
0.049,-0.015,0.691
0.073,-0.012,0.683
0.085,-0.009,0.676
0.098,-0.018,0.677
0.099,-0.022,0.687
0.101,-0.027,0.707
0.104,-0.042,0.721
0.106,-0.055,0.754
0.094,-0.061,0.791
0.077,-0.066,0.812
0.067,-0.072,0.848
0.043,-0.078,0.864
0.033,-0.088,0.899
0.013,-0.093,0.944
-0.004,-0.106,0.965
-0.017,-0.107,0.99
-0.049,-0.1,1.017
-0.072,-0.091,1.033
-0.082,-0.088,1.065
-0.085,-0.088,1.097
-0.079,-0.087,1.111
-0.066,-0.095,1.135
-0.057,-0.105,1.153
-0.04,-0.11,1.156
-0.015,-0.117,1.16
-0.002,-0.115,1.163
0.025,-0.115,1.164
0.052,-0.117,1.167
0.062,-0.113,1.166
0.082,-0.112,1.166
0.104,-0.112,1.166
0.114,-0.111,1.163
0.136,-0.117,1.16
0.149,-0.126,1.171
0.151,-0.124,1.171
0.153,-0.121,1.177
0.151,-0.115,1.182
0.15,-0.116,1.192
0.146,-0.118,1.197
0.145,-0.124,1.195
0.136,-0.137,1.188
0.133,-0.146,1.177
0.13,-0.166,1.166
0.001,-0.18,1.15
0.117,-0.183,1.13
0.101,-0.183,1.123
0.089,-0.178,1.105
0.06,-0.177,1.076
0.035,-0.178,1.063
0.032,-0.183,1.041
0.026,-0.184,1.031
0.012,-0.184,1.012
0.007,-0.183,0.998
0.005,-0.181,0.981
0.014,-0.177,0.973
0.013,-0.169,0.964
0.021,-0.167,0.961
0.034,-0.17,0.958
0.04,-0.167,0.958
0.045,-0.162,0.96
0.053,-0.159,0.958
0.057,-0.161,0.953
0.068,-0.165,0.951
0.079,-0.173,0.947
0.084,-0.178,0.943
0.084,-0.18,0.943
0.089,-0.185,0.942
0.091,-0.194,0.944
0.096,-0.198,0.942
0.097,-0.204,0.946
0.097,-0.197,0.957
0.099,-0.196,0.98
0.101,-0.204,0.995
0.102,-0.218,1.013
0.251,-0.865,0.96
0.236,-0.861,0.98
0.225,-0.893,0.987
0.219,-0.923,0.997
0.21,-0.931,1.017
0.205,-0.97,1.042
0.2,-0.977,1.072
0.181,-0.976,1.085
0.169,-1.038,1.113
0.163,-1.093,1.138
0.158,-1.129,1.147
0.157,-1.116,1.164
0.153,-1.115,1.183
0.15,-1.119,1.191
0.15,-1.13,1.194
0.152,-1.135,1.183
0.152,-1.144,1.17
0.151,-1.155,1.136
0.15,-1.162,1.095
0.151,-1.188,1.05
0.149,-1.204,1.026
0.148,-1.206,0.969
0.143,-1.197,0.916
0.121,-1.188,0.869
0.1,-1.167,0.845
0.09,-1.14,0.801
0.063,-1.125,0.753
0.032,-1.086,0.732
-0.117,-0.847,0.396
-0.059,-0.881,0.746
-0.15,-0.924,0.392
-0.159,-0.92,0.56
-0.029,-0.773,0.6
-0.128,-0.567,0.499
-0.12,-0.369,0.511
-0.173,-0.508,0.502
-0.135,-0.633,0.702
-0.2,-0.665,0.726
-0.277,-0.473,0.642
-0.388,-0.161,0.582
-0.561,0.166,0.521
-0.611,0.399,0.465
-0.595,0.514,0.488
-0.733,0.622,0.38
-0.849,0.857,0.373
-0.827,0.949,0.466
-0.757,0.884,0.665
-0.803,0.841,0.71
-0.874,1.235,0.703
-0.894,1.399,0.704
-0.841,1.612,0.761
-0.84,1.767,0.782
-0.85,1.874,0.776
-0.861,2.084,0.815
-0.783,2.171,0.865
-0.72,2.273,0.924
-0.653,2.487,1.045
-0.43,2.433,1.242
-0.219,2.495,1.26
-0.095,2.404,1.402
0.233,2.272,1.525
0.335,2.228,1.663
0.559,2.08,1.73
0.663,1.901,1.867
0.811,1.815,1.969
0.907,1.664,2.013
0.949,1.534,2.079
0.998,1.468,2.119
1.006,1.365,2.15
0.998,1.273,2.208
0.956,1.239,2.224
0.868,1.199,2.215
0.814,1.188,2.164
0.675,1.19,2.123
0.589,1.206,2.03
0.388,1.221,1.927
0.182,1.242,1.854
0.076,1.257,1.686
-0.115,1.29,1.61
-0.325,1.356,1.5
-0.322,1.37,1.438
-0.387,1.383,1.416
-0.456,1.392,1.297
-0.447,1.381,1.303
-0.474,1.445,1.249
-0.455,1.443,1.145
-0.445,1.447,1.07
-0.442,1.422,1.03
-0.439,1.363,0.982
-0.464,1.354,0.953
-0.467,1.344,0.951
-0.426,1.34,0.994
-0.442,1.299,1.027
-0.421,1.231,1.05
-0.351,1.108,1.083
-0.339,0.995,1.102
-0.348,0.93,1.099
-0.382,0.791,1.102
-0.401,0.676,1.096
-0.43,0.618,1.091
-0.452,0.497,1.087
-0.469,0.431,1.079
-0.505,0.327,1.074
-0.516,0.23,1.053
-0.531,0.18,1.042
-0.549,0.086,1.024
-0.559,0.041,1.012
-0.575,-0.038,1.005
-0.581,-0.11,0.992
-0.579,-0.17,0.978
-0.58,-0.203,0.967
-0.571,-0.265,0.967
-0.562,-0.326,0.977
-0.532,-0.362,0.988
-0.499,-0.418,0.998
-0.477,-0.441,1.02
-0.426,-0.485,1.025
-0.366,-0.597,1.037
-0.33,-0.66,1.057
-0.243,-0.722,1.06
-0.194,-0.764,1.056
-0.168,-0.777,1.069
-0.121,-0.8,1.075
-0.088,-0.814,1.072
-0.063,-0.866,1.064
-0.022,-0.888,1.047
-0.009,-0.915,1.037
0.01,-0.909,1.012
0.019,-0.91,0.99
0.027,-0.904,0.97
0.035,-0.89,0.959
0.043,-0.889,0.93
0.065,-0.89,0.912
0.092,-0.895,0.87
0.104,-0.901,0.822
0.122,-0.921,0.799
0.129,-0.932,0.756
0.149,-0.937,0.736
0.173,-0.94,0.7
0.185,-0.941,0.673
0.21,-0.938,0.667
0.222,-0.934,0.655
0.247,-0.935,0.653
0.28,-0.95,0.652
0.3,-0.957,0.646
0.33,-0.969,0.65
0.352,-0.978,0.654
0.355,-0.979,0.666
0.354,-0.973,0.683
0.348,-0.949,0.695
0.346,-0.932,0.722
0.342,-0.921,0.733
0.331,-0.906,0.74
0.292,-0.897,0.754
0.283,-0.875,0.78
0.256,-0.859,0.807
0.214,-0.808,0.817
0.197,-0.762,0.827
0.17,-0.742,0.837
0.149,-0.717,0.845
0.138,-0.686,0.846
0.109,-0.669,0.844
0.081,-0.632,0.84
0.069,-0.611,0.834
0.046,-0.56,0.831
0.034,-0.5,0.83
0.035,-0.438,0.822
0.042,-0.415,0.816
0.055,-0.385,0.806
0.061,-0.359,0.78
0.07,-0.343,0.749
0.093,-0.331,0.734
0.115,-0.308,0.718
0.128,-0.295,0.695
0.132,-0.293,0.681
0.139,-0.299,0.681
0.141,-0.298,0.701
0.142,-0.276,0.707
0.128,-0.23,0.633
0.164,-0.263,0.783
0.167,-0.314,0.689
0.13,-0.301,0.712
0.174,-0.285,0.798
0.161,-0.262,0.789
0.104,-0.235,0.778
0.097,-0.245,0.793
0.102,-0.252,0.81
0.092,-0.244,0.822
0.088,-0.227,0.832
0.091,-0.215,0.853
0.098,-0.214,0.88
0.1,-0.216,0.898
0.105,-0.218,0.919
0.114,-0.221,0.926
0.116,-0.228,0.943
0.119,-0.234,0.957
0.124,-0.245,0.966
0.126,-0.248,0.983
0.131,-0.248,1.004
0.135,-0.247,1.02
0.138,-0.251,1.042
0.143,-0.248,1.074
0.139,-0.232,1.081
0.138,-0.236,1.087
0.14,-0.244,1.099
0.143,-0.26,1.104
0.148,-0.264,1.118
0.154,-0.264,1.123
0.162,-0.261,1.134
0.167,-0.262,1.137
0.176,-0.261,1.14
0.179,-0.26,1.139
0.185,-0.259,1.14
0.192,-0.263,1.14
0.192,-0.267,1.133
0.184,-0.266,1.003
0.173,-0.259,1.118
0.172,-0.254,1.1
0.177,-0.249,1.091
0.177,-0.254,1.068
0.176,-0.261,1.041
0.172,-0.261,1.03
0.169,-0.252,1.014
0.167,-0.245,1.004
0.171,-0.231,1.003
0.173,-0.225,0.995
0.176,-0.222,0.989
0.182,-0.223,0.978
0.185,-0.222,0.975
0.182,-0.224,0.947
0.178,-0.225,0.939
0.182,-0.224,0.936
0.182,-0.224,0.936
0.18,-0.224,0.938
0.175,-0.226,0.94
0.172,-0.233,0.947
0.163,-0.236,0.95
0.153,-0.243,0.944
0.163,-0.759,0.985
0.188,-0.776,0.98
0.198,-0.8,0.975
0.213,-0.822,0.957
0.22,-0.881,0.955
0.222,-0.915,0.938
0.235,-0.941,0.915
0.247,-0.903,0.892
0.259,-0.887,0.852
0.22,-1.084,0.836
0.227,-1.126,0.837
0.24,-1.118,0.836
0.23,-1.129,0.842
0.226,-1.124,0.86
0.235,-1.117,0.9
0.24,-1.105,0.91
0.235,-1.15,0.935
0.225,-1.179,0.957
0.224,-1.189,0.957
0.226,-1.205,0.962
0.237,-1.206,0.965
0.248,-1.211,0.97
0.252,-1.233,0.963
0.271,-1.239,0.956
0.284,-1.254,0.938
0.285,-1.266,0.907
0.286,-1.266,0.875
0.28,-1.247,0.857
0.274,-1.222,0.83
0.275,-1.204,0.798
0.27,-1.173,0.786
0.267,-1.14,0.765
0.257,-1.121,0.74
0.243,-1.084,0.727
0.228,-1.025,0.691
0.188,-0.987,0.651
0.133,-0.892,0.63
0.102,-0.792,0.584
0.037,-0.741,0.564
-0.029,-0.627,0.531
-0.062,-0.515,0.478
-0.141,-0.456,0.436
-0.215,-0.32,0.43
-0.25,-0.175,0.431
-0.659,0.18,0.086
-0.558,0.405,0.16
-0.676,0.742,0.156
-0.83,0.932,-0.229
-0.698,1.044,-0.087
-0.506,0.599,0.53
-0.72,0.517,0.806
-0.653,0.783,0.989
-0.725,1.004,0.938
-0.764,1.292,0.939
-0.74,1.57,1.065
-0.714,1.755,1.15
-0.641,2.14,1.24
-0.432,2.457,1.488
-0.363,2.594,1.654
-0.217,2.626,1.7
-0.05,2.632,1.819
0.001,2.583,1.905
0.1,2.448,1.931
0.161,2.245,1.974
0.256,2.141,1.975
0.353,1.968,1.967
0.419,1.899,2.008
0.581,1.789,2.057
0.668,1.649,2.182
0.795,1.559,2.232
0.858,1.386,2.256
0.879,1.294,2.291
0.843,1.148,2.285
0.794,1.036,2.207
0.646,1.001,2.157
0.44,0.995,2.07
0.404,1.015,1.977
0.264,1.062,1.928
0.125,1.073,1.816
-0.034,1.056,1.635
-0.111,0.996,1.432
-0.249,0.969,1.313
-0.398,0.986,1.074
-0.46,0.895,1.062
-0.503,0.941,0.987
-0.547,0.947,0.939
-0.572,0.962,0.917
-0.57,0.949,0.917
-0.566,0.958,0.91
-0.552,0.953,0.908
-0.515,0.955,0.937
-0.469,0.929,0.957
-0.443,0.778,0.993
-0.391,0.833,1.007
-0.367,0.799,1.004
-0.36,0.766,1.028
-0.336,0.757,1.048
-0.304,0.711,1.056
-0.293,0.637,1.071
-0.294,0.595,1.063
-0.303,0.527,1.057
-0.307,0.476,1.037
-0.316,0.439,1.018
-0.317,0.408,1.01
-0.318,0.336,0.978
-0.319,0.284,0.987
-0.329,0.243,0.967
-0.343,0.212,0.931
-0.356,0.122,0.938
-0.366,0.112,0.944
-0.367,0.105,0.946
-0.377,0.082,0.951
-0.391,0.079,0.938
-0.403,0.035,0.951
-0.405,-0.003,0.965
-0.404,-0.011,0.974
-0.389,-0.062,0.987
-0.384,-0.1,1.006
-0.354,-0.112,1.026
0.398,-0.727,0.944
0.415,-0.737,0.961
0.443,-0.737,0.971
0.451,-0.741,0.976
0.464,-0.761,0.995
0.466,-0.775,1.006
0.457,-0.765,1.013
0.447,-0.756,1.02
0.421,-0.761,1.021
0.387,-0.741,1.014
0.37,-0.745,1.009
0.326,-0.741,1.002
0.292,-0.722,0.998
0.277,-0.703,0.995
0.241,-0.695,0.991
0.203,-0.676,0.991
0.183,-0.644,0.989
0.166,-0.626,0.977
0.162,-0.594,0.971
0.163,-0.574,0.96
0.163,-0.568,0.956
0.173,-0.553,0.956
0.181,-0.526,0.953
0.203,-0.507,0.958
0.233,-0.472,0.963
0.246,-0.437,0.967
0.273,-0.429,0.955
0.305,-0.432,0.957
0.331,-0.421,0.965
0.341,-0.41,0.969
0.345,-0.387,0.966
0.341,-0.379,0.964
0.331,-0.378,0.957
0.316,-0.376,0.956
0.31,-0.376,0.96
0.293,-0.373,0.973
0.261,-0.351,0.976
0.238,-0.326,0.983
0.199,-0.318,0.988
0.17,-0.307,0.989
0.155,-0.296,0.989
0.124,-0.29,0.986
0.101,-0.279,0.973
0.092,-0.272,0.954
0.068,-0.255,0.946
0.061,-0.235,0.93
0.045,-0.224,0.915
0.028,-0.206,0.907
0.022,-0.198,0.888
0.015,-0.181,0.876
0.019,-0.178,0.854
0.018,-0.178,0.834
0.028,-0.177,0.816
0.041,-0.174,0.81
0.045,-0.168,0.806
0.055,-0.158,0.809
0.072,-0.144,0.823
0.085,-0.141,0.841
0.113,-0.138,0.853
0.137,-0.153,0.868
0.148,-0.163,0.875
0.165,-0.176,0.878
0.173,-0.189,0.887
0.187,-0.201,0.896
0.193,-0.204,0.91
0.193,-0.204,0.921
0.192,-0.204,0.946
0.18,-0.209,0.966
0.179,-0.219,0.976
0.174,-0.225,0.986
0.163,-0.23,0.99
0.157,-0.227,1.005
0.151,-0.214,1.017
0.151,-0.211,1.029
0.145,-0.218,1.033
0.14,-0.218,1.036
0.138,-0.219,1.037
0.133,-0.217,1.036
0.135,-0.216,1.03
0.139,-0.215,1.025
0.138,-0.212,1.027
0.139,-0.205,1.019
0.148,-0.2,1.02
0.149,-0.204,1.022
0.145,-0.206,1.027
0.143,-0.203,1.03
0.15,-0.197,1.033
0.158,-0.201,1.033
0.156,-0.207,1.034
0.153,-0.212,1.032
0.151,-0.215,1.032
0.146,-0.215,1.035
0.134,-0.208,1.036
0.131,-0.2,1.046
0.137,-0.201,1.053
0.141,-0.216,1.053
0.142,-0.239,1.048
0.139,-0.247,1.039
0.134,-0.255,1.035
0.132,-0.245,1.022
0.127,-0.241,1.019
0.123,-0.243,1.01
0.12,-0.245,0.997
0.12,-0.253,0.992
0.122,-0.266,0.979
0.128,-0.274,0.965
0.129,-0.293,0.958
0.126,-0.309,0.955
0.125,-0.313,0.937
0.133,-0.326,0.929
0.133,-0.357,0.916
0.124,-0.369,0.909
0.121,-0.386,0.902
0.122,-0.402,0.89
0.122,-0.415,0.889
0.109,-0.447,0.884
0.106,-0.469,0.883
0.094,-0.48,0.883
0.089,-0.504,0.887
0.15,-0.855,1.033
0.164,-0.892,1.05
0.206,-0.903,1.062
0.251,-0.922,1.07
0.272,-0.936,1.087
0.316,-0.946,1.094
0.363,-0.958,1.105
0.384,-0.964,1.113
0.42,-0.965,1.117
0.448,-0.966,1.118
0.468,-0.97,1.117
0.476,-0.972,1.114
0.488,-0.976,1.103
0.484,-0.982,1.097
0.48,-0.992,1.083
0.465,-0.996,1.069
0.448,-1.002,1.047
0.43,-1.019,1.023
0.411,-1.027,1.002
0.402,-1.052,0.977
0.394,-1.08,0.963
0.38,-1.109,0.932
0.366,-1.127,0.895
0.357,-1.141,0.873
0.332,-1.146,0.84
0.317,-1.062,0.825
0.262,-1.128,0.758
0.244,-1.114,0.715
0.218,-1.094,0.691
0.181,-1.044,0.627
0.159,-1.006,0.569
0.117,-0.919,0.545
0.093,-0.825,0.493
0.03,-0.781,0.333
-0.303,-0.472,0.19
-0.064,-0.401,0.34
-0.206,-0.47,-0.127
-0.362,-0.31,-0.05
-0.266,-0.034,0.033
-0.458,0.202,-0.041
-0.463,0.259,0.043
-0.512,0.386,0.081
-0.288,-0.321,0.432
-0.325,-0.481,0.569
-0.457,-0.366,0.568
-0.587,0.147,0.555
-0.696,0.702,0.534
-0.823,1.143,0.544
-0.887,1.307,0.612
-0.879,1.56,0.71
-0.859,1.932,0.774
-0.836,2.108,0.793
-0.789,2.44,0.782
-0.742,2.715,0.808
-0.583,2.84,0.847
-0.491,2.982,0.93
-0.282,3.03,1.005
-0.034,2.985,1.019
0.078,2.878,1.153
0.338,2.771,1.272
0.529,2.542,1.351
0.595,2.263,1.492
0.701,2.104,1.625
0.743,1.802,1.686
0.745,1.677,1.838
0.747,1.521,1.9
0.731,1.345,2.037
0.67,1.281,2.187
0.589,1.18,2.255
0.535,1.06,2.338
0.389,1.009,2.361
0.218,0.941,2.391
0.136,0.925,2.387
-0.013,0.923,2.367
-0.077,0.931,2.297
-0.182,0.938,2.178
-0.269,0.944,2.1
-0.314,0.926,1.918
-0.384,0.915,1.708
-0.434,0.899,1.599
-0.481,0.92,1.387
-0.506,0.93,1.196
-0.539,0.924,1.11
-0.563,0.939,0.975
-0.614,0.932,0.875
-0.653,0.93,0.822
-0.664,0.944,0.745
-0.69,0.959,0.715
-0.701,0.97,0.72
-0.703,0.95,0.737
-0.707,0.943,0.761
-0.693,0.919,0.778
-0.679,0.892,0.828
-0.635,0.873,0.849
-0.56,0.825,0.921
-0.517,0.787,1.015
-0.432,0.683,1.054
-0.407,0.588,1.075
-0.387,0.557,1.072
-0.403,0.521,1.074
-0.413,0.479,1.07
-0.421,0.447,1.069
-0.412,0.409,1.073
-0.403,0.356,1.069
-0.38,0.326,1.056
-0.351,0.254,1.036
-0.343,0.173,0.995
-0.336,0.14,0.96
-0.334,0.079,0.95
-0.33,0.057,0.94
-0.329,0.02,0.932
-0.331,-0.008,0.917
-0.335,-0.017,0.922
-0.336,-0.036,0.92
-0.329,-0.053,0.929
-0.322,-0.081,0.942
-0.32,-0.098,0.954
-0.323,-0.119,0.96
-0.325,-0.124,0.989
0.411,-0.626,1.012
0.45,-0.625,1.029
0.501,-0.622,1.023
0.521,-0.649,1.037
0.508,-0.661,1.055
0.508,-0.651,1.065
0.517,-0.661,1.088
0.499,-0.662,1.099
0.462,-0.645,1.11
0.432,-0.632,1.112
0.39,-0.607,1.11
0.37,-0.621,1.106
0.312,-0.578,1.089
0.255,-0.533,1.095
0.209,-0.488,1.101
0.165,-0.45,1.103
0.146,-0.413,1.098
0.115,-0.397,1.083
0.098,-0.374,1.072
0.079,-0.349,1.041
0.069,-0.314,1.01
0.046,-0.29,0.982
0.027,-0.244,0.968
0.02,-0.188,0.952
0.022,-0.178,0.922
0.04,-0.18,0.89
0.054,-0.189,0.873
0.069,-0.185,0.848
0.084,-0.168,0.839
0.096,-0.148,0.841
0.118,-0.149,0.834
0.131,-0.16,0.829
0.139,-0.172,0.821
0.147,-0.191,0.816
0.151,-0.199,0.803
0.145,-0.208,0.8
0.135,-0.205,0.797
0.127,-0.202,0.799
0.112,-0.198,0.806
0.086,-0.177,0.811
0.078,-0.164,0.815
0.061,-0.161,0.811
0.039,-0.158,0.81
0.024,-0.155,0.806
0.02,-0.161,0.804
0.015,-0.166,0.807
0.011,-0.173,0.809
0.004,-0.176,0.821
0,-0.168,0.847
-0.007,-0.161,0.886
-0.008,-0.137,0.91
-0.007,-0.118,0.962
0.009,-0.12,1.007
0.027,-0.141,1.027
0.037,-0.168,1.062
0.059,-0.176,1.092
0.088,-0.194,1.106
0.1,-0.206,1.133
0.125,-0.211,1.15
0.142,-0.222,1.153
0.161,-0.234,1.153
0.172,-0.246,1.148
0.174,-0.252,1.139
0.171,-0.247,1.137
0.167,-0.229,1.137
0.149,-0.219,1.128
0.125,-0.201,1.115
0.117,-0.199,1.088
0.114,-0.204,1.055
0.105,-0.219,1.038
0.099,-0.217,1.001
0.08,-0.204,0.98
0.071,-0.197,0.969
0.063,-0.176,0.97
0.06,-0.165,0.975
0.064,-0.145,0.98
0.069,-0.133,0.993
0.08,-0.127,0.998
0.087,-0.126,1.001
0.091,-0.123,1.01
0.094,-0.121,1.013
0.105,-0.111,1.017
0.109,-0.112,1.022
0.115,-0.114,1.025
0.121,-0.113,1.026
0.124,-0.113,1.026
0.13,-0.113,1.026
0.132,-0.115,1.027
0.13,-0.117,1.027
0.13,-0.114,1.027
0.12,-0.111,1.024
0.113,-0.109,1.02
0.097,-0.108,1.02
0.08,-0.107,1.019
0.072,-0.108,1.029
0.064,-0.111,1.032
0.061,-0.114,1.041
0.058,-0.119,1.051
0.055,-0.126,1.057
0.055,-0.138,1.061
0.061,-0.144,1.064
0.069,-0.149,1.065
0.072,-0.152,1.063
0.081,-0.153,1.057
0.093,-0.153,1.048
0.105,-0.153,1.043
0.11,-0.152,1.031
0.117,-0.153,1.025
0.127,-0.152,1.017
0.135,-0.147,1.016
0.137,-0.142,1.007
0.136,-0.135,0.998
0.126,-0.122,0.995
0.123,-0.117,0.989
0.126,-0.115,0.977
0.127,-0.117,0.975
0.124,-0.122,0.975
0.122,-0.122,0.976
0.118,-0.122,0.987
0.353,-0.856,0.865
0.341,-0.899,0.866
0.317,-0.993,0.867
0.305,-1.034,0.869
0.287,-1.132,0.875
0.273,-1.206,0.885
0.243,-1.241,0.891
0.216,-1.305,0.894
0.203,-1.377,0.903
0.176,-1.396,0.903
0.15,-1.43,0.937
0.14,-1.45,0.972
0.122,-1.468,0.984
0.115,-1.476,1.023
0.115,-1.476,1.059
0.126,-1.474,1.071
0.143,-1.469,1.085
0.155,-1.463,1.091
0.188,-1.374,1.085
0.193,-1.455,1.046
0.204,-1.488,1.027
0.248,-1.451,0.999
0.26,-1.417,0.925
0.275,-1.401,0.87
0.28,-1.36,0.844
0.283,-1.335,0.795
0.287,-1.284,0.773
0.294,-1.241,0.724
0.291,-1.204,0.677
0.275,-1.179,0.655
0.135,-1.115,0.619
0.221,-1.078,0.567
-0.017,-0.86,0.348
0.031,-0.822,0.609
0.067,-0.853,0.252
-0.016,-0.756,0.327
0.042,-0.613,0.482
0.082,-0.55,0.468
-0.035,-0.417,0.423
-0.04,-0.373,0.442
-0.134,-0.29,0.304
-0.271,0.075,0.257
-0.338,0.18,0.212
-0.415,0.262,0.264
-0.43,0.289,0.344
-0.509,0.207,0.5
-0.579,0.2,0.632
-0.731,0.389,0.677
-0.828,0.784,0.608
-0.912,0.919,0.624
-0.983,1.129,0.669
-1.048,1.288,0.716
-1.186,1.511,0.723
-1.247,1.718,0.748
-1.329,1.827,0.821
-1.389,2.049,0.868
-1.387,2.275,0.949
-1.319,2.366,0.999
-1.338,2.51,0.972
-1.335,2.618,0.942
-1.281,2.718,1.002
-1.136,2.799,1.075
-0.938,2.801,1.112
-0.822,2.743,1.222
-0.493,2.669,1.378
-0.082,2.506,1.471
0.117,2.27,1.596
0.49,2.132,1.637
0.786,1.882,1.732
0.935,1.782,1.842
1.16,1.6,1.881
1.395,1.405,1.995
1.49,1.24,2.111
1.586,1.165,2.174
1.528,1.042,2.166
1.332,0.978,2.1
1.256,0.964,2.011
0.998,0.998,1.966
0.839,1.081,1.879
0.501,1.143,1.854
0.325,1.269,1.856
-0.025,1.352,1.893
-0.363,1.512,1.909
-0.636,1.649,1.946
-0.749,1.71,1.964
-0.924,1.791,1.946
-0.991,1.819,1.882
-1.078,1.812,1.737
-1.112,1.761,1.654
-1.114,1.679,1.492
-1.119,1.639,1.42
-1.116,1.478,1.212
-1.089,1.425,1.108
-1.047,1.41,1.029
-1.042,1.279,0.803
-0.944,1.231,0.752
-0.909,1.241,0.701
-0.883,1.114,0.617
-0.789,1,0.622
-0.755,1.022,0.59
-0.712,0.935,0.592
-0.651,0.829,0.61
-0.583,0.734,0.649
-0.544,0.679,0.685
-0.5,0.594,0.706
-0.469,0.49,0.764
-0.407,0.438,0.825
-0.372,0.428,0.851
-0.386,0.202,0.855
-0.392,0.147,0.882
-0.367,0.166,0.894
-0.361,0.07,0.9
-0.348,0.046,0.903
-0.331,-0.005,0.889
-0.319,-0.09,0.874
-0.317,-0.131,0.851
-0.307,-0.173,0.842
-0.31,-0.183,0.843
-0.303,-0.226,0.838
0.467,-0.777,0.803
0.503,-0.793,0.792
0.526,-0.821,0.777
0.561,-0.828,0.766
0.57,-0.831,0.745
0.574,-0.835,0.725
0.571,-0.846,0.715
0.563,-0.852,0.692
0.524,-0.846,0.678
0.489,-0.823,0.679
0.453,-0.792,0.699
0.433,-0.777,0.729
0.378,-0.749,0.75
0.329,-0.724,0.793
0.305,-0.713,0.841
0.243,-0.664,0.887
0.171,-0.644,0.935
0.116,-0.602,0.962
0.092,-0.557,1.022
0.045,-0.534,1.05
0.008,-0.495,1.098
-0.003,-0.479,1.148
-0.016,-0.442,1.168
-0.02,-0.41,1.187
-0.02,-0.403,1.207
-0.018,-0.387,1.211
-0.002,-0.366,1.209
0.014,-0.347,1.2
0.048,-0.343,1.19
0.078,-0.334,1.164
0.091,-0.327,1.139
0.115,-0.308,1.121
0.122,-0.284,1.094
0.138,-0.273,1.063
0.147,-0.248,1.046
0.15,-0.237,1.012
0.149,-0.227,0.993
0.15,-0.197,0.986
0.146,-0.192,0.962
0.139,-0.188,0.958
0.134,-0.175,0.961
0.117,-0.155,0.962
0.105,-0.144,0.965
0.08,-0.12,0.97
0.056,-0.105,0.972
0.043,-0.092,0.972
0.017,-0.084,0.975
-0.004,-0.058,0.977
-0.016,-0.032,0.987
-0.026,-0.015,0.993
-0.027,-0.007,0.99
-0.036,-0.003,0.98
-0.044,0.003,0.975
-0.042,0.001,0.969
-0.037,0,0.965
-0.034,-0.006,0.965
-0.029,-0.005,0.97
-0.016,-0.006,0.98
-0.009,-0.006,0.998
0.009,-0.007,1.013
0.023,-0.017,1.02
0.029,-0.023,1.032
0.036,-0.027,1.037
0.037,-0.03,1.043
0.038,-0.027,1.052
0.039,-0.026,1.057
0.042,-0.032,1.062
0.043,-0.035,1.072
0.041,-0.04,1.076
0.035,-0.045,1.083
0.033,-0.047,1.089
0.028,-0.049,1.092
0.021,-0.045,1.101
0.021,-0.043,1.109
0.017,-0.043,1.116
0.015,-0.043,1.119
0.016,-0.047,1.129
0.025,-0.051,1.132
0.03,-0.059,1.132
0.031,-0.068,1.128
0.033,-0.072,1.122
0.04,-0.08,1.117
0.047,-0.084,1.108
0.049,-0.085,1.097
0.053,-0.088,1.087
0.058,-0.098,1.08
0.061,-0.107,1.066
0.072,-0.112,1.056
0.071,-0.12,1.053
0.07,-0.116,1.044
0.066,-0.113,1.044
0.064,-0.113,1.045
0.061,-0.112,1.034
0.049,-0.111,1.029
0.035,-0.107,1.022
0.029,-0.107,1.014
0.02,-0.102,1.009
0.009,-0.094,1.006
0.008,-0.092,0.997
0.006,-0.09,0.992
0.009,-0.092,0.987
0.012,-0.096,0.987
0.016,-0.095,0.983
0.019,-0.091,0.986
0.026,-0.09,0.986
0.036,-0.094,0.989
0.039,-0.094,0.995
0.049,-0.096,1.002
0.058,-0.102,1.006
0.064,-0.111,1.01
0.081,-0.116,1.013
0.087,-0.12,1.011
0.092,-0.12,1.011
0.096,-0.126,1.004
0.101,-0.137,1.002
0.102,-0.154,0.996
0.107,-0.16,0.992
0.109,-0.183,0.989
0.107,-0.201,0.985
0.216,-1.001,0.833
0.218,-1.078,0.819
0.216,-1.119,0.826
0.197,-1.2,0.842
0.186,-1.261,0.863
0.19,-1.3,0.879
0.195,-1.323,0.89
0.183,-1.372,0.921
0.181,-1.403,0.943
0.179,-1.41,0.968
0.168,-1.421,0.983
0.165,-1.372,1.007
0.163,-1.42,1.018
0.17,-1.432,1.029
0.178,-1.429,1.024
0.174,-1.428,1.01
0.186,-1.434,0.966
0.19,-1.448,0.92
0.187,-1.462,0.858
0.178,-1.484,0.827
0.178,-1.49,0.749
0.171,-1.494,0.672
0.162,-1.49,0.594
0.139,-1.48,0.52
0.119,-1.437,0.467
0.107,-1.369,0.449
0.108,-1.278,0.433
0.109,-1.177,0.437
0.124,-1.126,0.446
0.131,-1.027,0.451
0.119,-0.92,0.459
0.098,-0.803,0.462
0.05,-0.729,0.487
0.002,-0.554,0.488
-0.026,-0.36,0.47
-0.36,-0.154,0.205
-0.3,0.345,0.288
-0.396,0.795,0.025
-0.725,0.775,-0.372
-0.761,1.347,-0.29
-0.665,1.633,0.135
-0.543,1.649,0.616
-0.512,1.408,0.896
-0.667,1.387,1.115
-0.806,1.483,1.167
-1.081,1.741,1.104
-1.233,2.328,1.033
-1.27,2.927,0.953
-1.317,3.195,0.947
-1.31,3.56,1.082
-1.287,3.695,1.297
-1.158,3.874,1.397
-1.078,3.875,1.673
-0.739,3.738,1.982
-0.285,3.455,2.124
-0.046,2.955,2.313
0.455,2.647,2.362
0.854,2.154,2.385
1.03,1.909,2.404
1.322,1.48,2.412
1.448,1.208,2.447
1.665,1.105,2.5
1.74,0.96,2.509
1.719,0.861,2.505
1.576,0.83,2.468
1.309,0.802,2.453
1.144,0.828,2.454
0.792,0.925,2.443
0.491,1.081,2.428
0.291,1.208,2.393
-0.027,1.263,2.268
-0.319,1.319,2.133
-0.504,1.423,2.092
-0.65,1.496,1.937
-0.699,1.456,1.738
-0.761,1.429,1.641
-0.846,1.628,1.505
-0.81,1.548,1.317
-0.826,1.57,1.067
-0.803,1.526,0.968
-0.844,1.487,0.832
-0.872,1.482,0.682
-0.901,1.464,0.643
-0.902,1.437,0.61
-0.888,1.392,0.59
-0.826,1.186,0.601
-0.814,1.17,0.622
-0.745,1.104,0.692
-0.621,0.959,0.751
-0.544,0.76,0.882
-0.403,0.745,0.932
-0.346,0.601,0.972
-0.345,0.533,0.979
-0.361,0.428,0.978
-0.393,0.369,0.959
-0.411,0.339,0.924
-0.435,0.307,0.91
-0.457,0.276,0.891
-0.465,0.245,0.87
-0.461,0.225,0.841
-0.445,0.171,0.816
-0.428,0.111,0.798
-0.39,0.025,0.751
-0.366,-0.068,0.696
-0.323,-0.113,0.664
-0.305,-0.162,0.617
-0.239,-0.188,0.642
-0.22,-0.32,0.625
-0.211,-0.316,0.61
-0.16,-0.364,0.616
-0.135,-0.385,0.651
-0.097,-0.395,0.652
-0.057,-0.484,0.667
-0.043,-0.535,0.704
-0.004,-0.569,0.745
0.016,-0.568,0.759
0.016,-0.638,0.776
0.05,-0.678,0.834
0.044,-0.618,0.849
0.4,-0.8,0.873
0.442,-0.81,0.856
0.456,-0.815,0.84
0.481,-0.802,0.831
0.49,-0.824,0.819
0.49,-0.846,0.817
0.491,-0.877,0.81
0.481,-0.887,0.796
0.468,-0.908,0.775
0.418,-0.813,0.795
0.414,-0.816,0.811
0.397,-0.808,0.836
0.376,-0.81,0.846
0.364,-0.811,0.863
0.322,-0.806,0.872
0.269,-0.785,0.887
0.246,-0.76,0.909
0.2,-0.746,0.924
0.159,-0.713,0.934
0.141,-0.677,0.952
0.112,-0.659,0.971
0.103,-0.639,0.978
0.102,-0.63,0.991
0.098,-0.625,1.118
0.093,-0.601,1.009
0.094,-0.582,1.025
0.098,-0.541,1.032
0.106,-0.513,1.04
0.106,-0.499,1.043
0.109,-0.488,1.045
0.108,-0.47,1.053
0.107,-0.46,1.063
0.113,-0.436,1.071
0.112,-0.413,1.083
0.108,-0.4,1.101
0.103,-0.374,1.111
0.106,-0.359,1.13
0.115,-0.354,1.138
0.112,-0.336,1.146
0.114,-0.328,1.159
0.113,-0.319,1.166
0.11,-0.299,1.167
0.099,-0.287,1.154
0.082,-0.279,1.147
0.065,-0.257,1.14
0.054,-0.216,1.118
0.029,-0.196,1.111
-0.013,-0.183,1.085
-0.02,-0.141,1.067
-0.036,-0.122,1.044
-0.048,-0.11,1.019
-0.067,-0.101,1
-0.072,-0.09,0.994
-0.074,-0.084,0.984
-0.078,-0.087,0.97
-0.079,-0.086,0.968
-0.076,-0.091,0.968
-0.076,-0.093,0.968
-0.076,-0.098,0.973
-0.07,-0.1,0.983
-0.065,-0.108,0.99
-0.063,-0.119,1.006
-0.054,-0.125,1.023
-0.047,-0.139,1.032
-0.045,-0.145,1.044
-0.043,-0.143,1.058
-0.04,-0.149,1.067
-0.041,-0.147,1.076
-0.039,-0.141,1.081
-0.034,-0.143,1.079
-0.027,-0.147,1.079
-0.017,-0.163,1.063
-0.017,-0.164,1.045
-0.02,-0.157,1.035
-0.02,-0.144,1.019
-0.022,-0.142,0.999
-0.023,-0.142,0.989
-0.028,-0.135,0.974
-0.029,-0.128,0.957
-0.028,0,0.954
-0.022,-0.12,0.953
-0.018,-0.121,0.956
-0.012,-0.119,0.958
0.001,-0.116,0.966
0.012,-0.12,0.977
0.017,-0.126,0.987
0.029,-0.129,1.001
0.038,-0.003,1.018
0.056,-0.124,1.028
0.069,-0.135,1.042
0.075,-0.146,1.057
0.076,-0.147,1.071
0.078,-0.142,1.076
0.076,-0.137,1.085
0.069,-0.133,1.09
0.069,-0.134,1.092
0.068,-0.14,1.094
0.066,-0.143,1.091
0.059,-0.149,1.087
0.058,-0.151,1.083
0.048,-0.151,1.08
0.042,-0.143,1.076
0.032,-0.138,1.069
0.035,-0.135,1.065
0.034,-0.141,1.055
0.035,-0.155,1.036
0.039,-0.163,1.028
0.048,-0.179,1.009
0.049,-0.2,0.995
0.059,-0.207,0.981
0.068,-0.225,0.975
0.07,-0.244,0.965
0.078,-0.252,0.96
0.092,-0.272,0.957
0.097,-0.297,0.952
0.102,-0.307,0.949
0.102,-0.329,0.948
0.111,-0.354,0.945
0.112,-0.369,0.946
0.267,-0.786,1.016
0.304,-0.819,1.023
0.315,-0.856,1.031
0.332,-0.846,1.039
0.341,-0.967,1.031
0.355,-1.004,1.043
0.37,-1.083,1.028
0.369,-1.125,0.99
0.369,-1.163,0.972
0.364,-1.262,0.946
0.36,-1.333,0.897
0.346,-1.338,0.905
0.342,-1.385,0.877
0.343,-1.419,0.862
0.331,-1.417,0.849
0.333,-1.447,0.822
0.343,-1.49,0.854
0.341,-1.573,0.834
0.329,-1.55,0.784
0.321,-1.534,0.755
0.328,-1.596,0.754
0.335,-1.634,0.763
0.335,-1.651,0.751
0.326,-1.723,0.7
0.301,-1.75,0.645
0.264,-1.812,0.567
0.208,-1.865,0.523
0.123,-1.894,0.447
0.082,-1.878,0.373
-0.005,-1.84,0.344
-0.106,-1.727,0.315
-0.187,-1.575,0.29
-0.237,-1.386,0.287
-0.329,-1.295,0.282
-0.408,-1.092,0.281
-0.442,-0.886,0.282
-0.487,-0.782,0.288
-0.529,-0.528,0.294
-0.548,-0.259,0.309
-0.565,0.155,0.116
-0.999,0.371,-0.056
-0.909,1.258,0.055
-0.974,1.273,-0.675
-1.251,1.669,-0.494
-0.577,1.902,-0.317
-0.25,1.449,0.611
-0.409,1.338,0.837
-0.627,1.548,0.825
-0.699,1.926,0.691
-0.924,2.139,0.609
-1.12,2.764,0.543
-1.206,3.058,0.629
-1.401,3.627,0.703
-1.393,3.999,0.958
-1.322,4.233,1.245
-1.017,4.174,1.645
-0.764,4.087,1.835
-0.409,3.761,2.262
-0.252,3.297,2.548
0.099,2.936,2.678
0.454,2.317,2.809
0.64,2.089,2.948
0.994,1.628,2.96
1.193,1.261,3.097
1.535,1.112,3.167
1.646,0.998,3.27
1.759,0.938,3.219
1.631,0.85,3.147
1.487,0.891,2.994
1.148,0.944,2.925
0.966,1.058,2.731
0.56,1.113,2.445
0.133,1.278,2.286
-0.05,1.309,1.984
-0.324,1.473,1.962
-0.565,1.657,1.753
-0.59,1.606,1.637
-0.736,1.748,1.57
-0.852,1.794,1.463
-0.983,1.874,1.201
-1.022,1.859,1.016
-1.108,1.772,0.804
-1.176,1.668,0.711
-1.205,1.635,0.59
-1.2,1.597,0.574
-1.195,1.515,0.547
-1.159,1.422,0.565
-1.131,1.342,0.575
-1.009,1.224,0.651
-0.92,1.112,0.742
-0.77,0.903,0.795
-0.655,0.809,0.904
-0.623,0.649,0.931
-0.599,0.56,0.925
-0.589,0.334,0.912
-0.539,0.213,0.926
-0.504,0.14,0.904
-0.453,0.091,0.907
-0.398,-0.043,0.904
-0.361,-0.111,0.898
-0.294,-0.134,0.87
-0.259,-0.194,0.84
-0.235,-0.251,0.779
-0.232,-0.146,0.741
-0.242,-0.28,0.713
-0.235,-0.359,0.677
-0.356,-0.379,0.595
-0.251,-0.377,0.63
-0.201,-0.405,0.633
-0.178,-0.457,0.627
-0.171,-0.621,0.644
-0.129,-0.58,0.7
-0.079,-0.652,0.733
-0.053,-0.659,0.791
0.023,-0.696,0.851
0.097,-0.712,0.874
0.129,-0.782,0.936
0.206,-0.788,0.996
0.268,-0.806,1.011
0.334,-0.819,1.059
0.418,-0.814,1.07
0.452,-0.816,1.067
0.513,-0.823,1.071
0.539,-0.824,1.043
0.56,-0.853,1.011
0.565,-0.885,0.994
0.558,-0.855,0.946
0.535,-0.853,0.901
0.519,-0.828,0.878
0.493,-0.779,0.854
0.459,-0.798,0.834
0.407,-0.804,0.813
0.385,-0.786,0.795
0.355,-0.752,0.795
0.339,-0.714,0.799
0.311,-0.691,0.795
0.31,-0.691,0.791
0.318,-0.705,0.787
0.317,-0.692,0.774
0.321,-0.683,0.779
0.339,-0.677,0.788
0.368,-0.672,0.797
0.386,-0.669,0.817
0.419,-0.67,0.828
0.447,-0.661,0.833
0.459,-0.657,0.85
0.48,-0.656,0.872
0.492,-0.657,0.881
0.487,-0.63,0.913
0.486,-0.596,0.929
0.483,-0.6,0.971
0.43,-0.599,1.008
0.382,-0.557,1.021
0.349,-0.552,1.066
0.322,-0.48,1.082
0.255,-0.461,1.13
0.202,-0.443,1.142
0.176,-0.439,1.17
0.126,-0.429,1.181
0.083,-0.391,1.189
0.064,-0.265,1.181
0.018,-0.335,1.174
-0.011,-0.311,1.16
-0.047,-0.291,1.134
-0.059,-0.261,1.092
-0.076,-0.245,1.042
-0.077,-0.221,1.019
-0.077,-0.203,0.97
-0.075,-0.192,0.923
-0.072,-0.166,0.9
-0.073,-0.138,0.859
-0.07,-0.124,0.83
-0.058,-0.109,0.821
-0.042,-0.094,0.813
-0.035,-0.093,0.811
-0.015,-0.095,0.815
0,-0.107,0.825
0.007,-0.108,0.839
0.011,-0.102,0.877
0.006,-0.106,0.907
0,-0.117,0.923
-0.003,-0.125,0.956
-0.015,-0.127,0.983
-0.036,-0.124,1
-0.056,-0.121,1.01
-0.062,-0.114,1.029
-0.067,-0.11,1.037
-0.072,-0.107,1.044
-0.076,-0.111,1.042
-0.08,-0.109,1.045
-0.079,-0.104,1.052
-0.065,-0.094,1.063
-0.043,-0.09,1.069
-0.02,-0.102,1.066
-0.001,-0.107,1.064
0.018,-0.103,1.069
0.032,-0.097,1.077
0.045,-0.083,1.094
0.068,-0.082,1.105
0.087,-0.093,1.11
0.097,-0.103,1.117
0.103,-0.107,1.125
0.113,-0.108,1.134
0.121,-0.119,1.135
0.118,-0.132,1.132
0.111,-0.141,1.129
0.107,-0.142,1.133
0.096,-0.143,1.126
0.08,-0.151,1.125
0.069,-0.166,1.127
0.055,-0.171,1.13
0.034,-0.175,1.129
0.023,-0.172,1.128
0.005,-0.171,1.001
-0.012,-0.172,1.114
-0.021,-0.169,1.1
-0.04,-0.163,1.091
-0.049,-0.154,1.079
-0.052,-0.151,1.063
-0.041,-0.154,1.052
-0.029,-0.161,1.031
-0.013,-0.158,1.014
-0.001,-0.142,0.999
0.006,-0.128,0.988
0.024,-0.123,0.988
0.038,-0.118,0.99
0.052,-0.115,0.994
0.057,-0.106,1
0.063,-0.101,1.001
0.068,-0.105,1.002
0.072,-0.115,0.998
0.079,-0.122,0.996
0.078,-0.136,0.993
0.079,-0.141,0.996
0.08,-0.144,1.002
0.083,-0.155,1.005
0.085,-0.17,1.014
0.082,-0.179,1.019
0.259,-0.871,0.881
0.276,-0.917,0.751
0.285,-0.963,0.865
0.291,-1.004,0.856
0.307,-1.027,0.845
0.325,-1.074,0.839
0.342,-1.135,0.835
0.351,-1.195,0.837
0.368,-1.214,0.84
0.381,-1.193,0.834
0.372,-1.371,0.81
0.372,-1.41,0.803
0.379,-1.444,0.794
0.379,-1.464,0.778
0.377,-1.477,0.769
0.368,-1.492,0.765
0.356,-1.521,0.756
0.348,-1.532,0.741
0.327,-1.554,0.73
0.314,-1.572,0.701
0.294,-1.588,0.675
0.277,-1.638,0.66
0.269,-1.703,0.623
0.25,-1.729,0.581
0.222,-1.762,0.558
0.205,-1.76,0.519
0.173,-1.744,0.49
0.138,-1.687,0.475
0.099,-1.597,0.447
0.078,-1.48,0.428
0.036,-1.34,0.422
0.01,-1.27,0.441
-0.003,-1.152,0.448
-0.049,-1.014,0.443
-0.118,-0.831,0.429
-0.157,-0.609,0.396
-0.236,-0.497,0.358
-0.505,-0.271,0.244
-0.595,0.386,0.059
-0.506,0.612,0.24
-0.793,0.879,-0.219
-0.924,1.549,-0.065
-0.568,1.811,0.332
-0.438,2.223,0.408
-0.47,2.155,0.511
-0.377,1.87,0.81
-0.642,1.651,0.795
-0.783,1.755,0.882
-1.038,1.958,0.946
-1.295,2.609,0.943
-1.439,2.966,1.022
-1.675,3.506,1.144
-1.728,3.935,1.518
-1.68,4.01,1.861
-1.451,3.951,2.092
-1.122,3.613,2.151
-0.953,3.135,2.233
-0.508,2.799,2.367
-0.044,2.238,2.286
0.193,1.77,2.34
0.622,1.757,2.388
1.081,1.53,2.497
1.135,1.43,2.529
1.304,1.25,2.548
1.331,1.091,2.552
1.251,1.044,2.552
1.037,1.001,2.536
0.883,1.016,2.492
0.574,1.056,2.455
0.402,1.131,2.377
0.05,1.18,2.275
-0.286,1.218,2.199
-0.533,1.259,2.182
-0.648,1.366,2.124
-0.802,1.41,2.083
-0.904,1.484,2.061
-0.978,1.559,1.965
-1.021,1.569,1.805
-1.07,1.561,1.726
-1.121,1.581,1.55
-1.139,1.581,1.364
-1.179,1.596,1.21
-1.176,1.588,1.143
-1.118,1.572,1.105
-1.092,1.529,1.065
-1.03,1.504,1.062
-0.955,1.444,1.068
-0.843,1.246,1.078
-0.743,1.208,1.083
-0.675,1.032,1.092
-0.571,0.961,1.083
-0.456,0.83,1.101
-0.408,0.678,1.117
-0.365,0.604,1.083
-0.37,0.428,1.052
-0.381,0.3,0.993
-0.401,0.255,0.961
-0.405,0.169,0.888
-0.385,0.124,0.811
-0.349,0.059,0.773
-0.319,-0.037,0.701
-0.309,-0.214,0.645
-0.285,-0.179,0.627
-0.249,-0.283,0.594
-0.229,-0.337,0.565
-0.182,-0.412,0.548
-0.129,-0.554,0.559
-0.043,-0.636,0.602
0.015,-0.679,0.63
0.074,-0.718,0.642
0.099,-0.737,0.658
0.142,-0.743,0.666
0.199,-0.755,0.667
0.258,-0.798,0.681
0.291,-0.805,0.707
0.344,-0.828,0.712
0.379,-0.86,0.719
0.447,-0.88,0.727
0.499,-0.921,0.73
0.537,-0.939,0.731
0.559,-0.964,0.711
0.601,-1.037,0.715
0.591,-1.044,0.71
0.613,-1.1,0.686
0.626,-1.113,0.672
0.626,-1.126,0.673
0.631,-1.122,0.684
0.646,-1.139,0.707
0.664,-1.121,0.709
0.675,-1.146,0.739
0.697,-1.161,0.752
0.71,-1.164,0.769
0.716,-1.166,0.806
0.711,-1.138,0.826
0.7,-1.125,0.848
0.677,-1.11,0.902
0.616,-1.046,0.936
0.561,-1.004,0.96
0.474,-0.951,0.972
0.369,-0.947,1.007
0.319,-0.942,1.026
0.217,-0.837,1.04
0.152,-0.788,1.078
0.117,-0.726,1.091
0.047,-0.699,1.086
-0.019,-0.636,1.071
-0.075,-0.577,1.06
-0.119,-0.517,1.026
-0.138,-0.46,0.987
-0.167,-0.435,0.941
-0.18,-0.382,0.881
-0.183,-0.317,0.849
-0.168,-0.27,0.798
-0.156,-0.246,0.75
-0.121,-0.208,0.724
-0.075,-0.197,0.68
-0.05,-0.196,0.66
0,-0.197,0.654
0.053,-0.197,0.66
0.079,-0.193,0.688
0.123,-0.192,0.725
0.148,-0.188,0.87
0.165,-0.186,0.787
0.173,-0.193,0.826
0.18,-0.2,0.85
0.171,-0.209,0.858
0.159,-0.206,0.868
0.129,-0.201,0.871
0.095,-0.192,0.874
0.058,-0.178,0.882
0.035,-0.152,0.893
-0.003,-0.142,0.91
-0.037,-0.117,0.927
-0.068,-0.084,0.935
-0.09,-0.06,0.949
-0.099,-0.051,0.953
-0.108,-0.048,0.957
-0.12,-0.031,0.974
-0.116,-0.007,0.986
-0.104,0.009,1.005
-0.091,0.013,1.021
-0.062,0.007,1.029
-0.034,-0.003,1.052
-0.021,0.001,1.074
0.012,0.009,1.092
0.033,0.019,1.131
0.066,0.02,1.157
0.092,0.012,1.168
0.101,-0.124,1.176
0.111,-0.016,1.183
0.241,-0.018,1.165
0.126,-0.042,1.179
0.102,-0.074,1.196
0.116,-0.052,1.183
0.128,-0.049,1.179
0.122,-0.076,1.18
0.112,-0.087,1.177
0.117,-0.094,1.174
0.11,-0.099,1.158
0.087,-0.102,1.137
0.078,-0.099,1.122
0.054,-0.081,1.112
0.024,-0.068,1.095
-0.001,-0.057,1.088
-0.009,-0.052,1.067
-0.026,-0.047,1.05
-0.035,-0.044,1.049
-0.033,-0.029,1.053
-0.032,-0.007,1.068
-0.032,0.004,1.082
-0.016,0.015,1.089
0.117,0,1.089
0.01,-0.013,1.088
0.023,-0.031,1.089
0.032,-0.046,1.091
0.042,-0.05,1.095
0.047,-0.055,1.097
0.05,-0.06,1.097
0.051,-0.073,1.093
0.049,-0.09,1.085
0.036,-0.097,1.079
0.027,-0.101,1.077
0.024,-0.107,1.081
0.019,-0.113,1.082
0.012,-0.132,1.081
-0.007,-0.134,1.075
-0.024,-0.126,1.071
-0.032,-0.123,1.062
-0.036,-0.125,1.047
-0.041,-0.131,1.039
-0.047,-0.125,1.02
-0.046,-0.112,1.01
-0.039,-0.109,0.996
-0.021,-0.106,0.976
-0.011,-0.104,0.963
0.001,-0.099,0.957
0.008,-0.09,0.958
0.022,-0.081,0.961
0.345,-0.963,0.732
0.347,-1.053,0.699
0.353,-1.13,0.706
0.362,-1.176,0.725
0.32,-1.205,0.714
0.301,-1.228,0.747
0.297,-1.274,0.772
0.291,-1.293,0.819
0.268,-1.273,0.857
0.292,-1.276,0.831
0.297,-1.271,0.892
0.248,-1.385,0.924
0.265,-1.447,0.978
0.287,-1.434,1.015
0.31,-1.383,1.022
0.323,-1.394,1.027
0.32,-1.383,1.062
0.325,-1.407,1.076
0.332,-1.381,1.062
0.36,-1.362,1.038
0.375,-1.343,1.003
0.377,-1.333,0.976
0.384,-1.325,0.959
0.395,-1.296,0.918
0.398,-1.276,0.866
0.398,-1.22,0.841
0.38,-1.155,0.789
0.366,-1.112,0.734
0.328,-1.001,0.704
0.288,-0.883,0.64
0.264,-0.755,0.58
0.226,-0.691,0.54
0.183,-0.555,0.526
0.16,-0.39,0.515
-0.182,-0.247,0.132
0.154,-0.076,0.401
-0.033,0.458,0.096
-0.351,0.326,0.038
-0.181,0.703,0.34
-0.128,1.17,0.526
-0.42,1.318,0.39
-0.625,1.688,0.349
-0.672,1.778,0.407
-0.713,1.702,0.615
-0.79,1.36,0.71
-0.877,1.321,0.868
-0.919,1.454,0.924
-0.931,1.764,0.96
-1.015,1.934,0.987
-1.048,2.277,1.045
-1.018,2.422,1.169
-1.025,2.552,1.311
-0.926,2.582,1.385
-0.854,2.512,1.564
-0.665,2.5,1.635
-0.473,2.37,1.739
-0.358,2.141,1.897
-0.074,2.169,1.955
0.211,1.976,2.087
0.351,1.884,2.22
0.595,1.718,2.284
0.709,1.59,2.378
0.877,1.53,2.462
0.983,1.373,2.49
0.996,1.252,2.479
0.983,1.208,2.456
0.898,1.141,2.402
0.836,1.12,2.382
0.674,1.121,2.348
0.593,1.141,2.286
0.435,1.133,2.212
0.204,1.245,2.155
0.12,1.161,2.005
-0.064,1.18,1.948
-0.231,1.195,1.804
-0.303,1.189,1.723
-0.43,1.239,1.693
-0.476,1.298,1.618
-0.572,1.317,1.536
-0.662,1.377,1.504
-0.716,1.399,1.41
-0.791,1.387,1.305
-0.827,1.328,1.203
-0.858,1.307,1.108
-0.875,1.243,1.081
-0.867,1.193,1.007
-0.852,1.158,0.94
-0.825,1.082,0.929
-0.803,0.985,0.884
-0.732,0.922,0.891
-0.663,0.897,0.894
-0.562,0.797,0.931
-0.517,0.748,0.971
-0.463,0.673,0.976
-0.44,0.577,0.98
-0.426,0.53,0.951
-0.425,0.463,0.931
-0.42,0.4,0.895
-0.387,0.379,0.872
-0.329,0.325,0.863
-0.292,0.236,0.841
-0.202,0.189,0.826
-0.035,0.082,0.8
-0.086,-0.001,0.759
-0.008,-0.139,0.741
0.093,-0.233,0.768
0.132,-0.32,0.751
0.186,-0.369,0.736
0.214,-0.443,0.724
0.224,-0.592,0.716
0.238,-0.547,0.721
0.227,-0.573,0.726
0.221,-0.549,0.711
0.176,-0.55,0.709
0.123,-0.506,0.699
0.103,-0.61,0.705
0.049,-0.528,0.716
0.024,-0.537,0.743
0.031,-0.57,0.752
0.302,-0.826,0.96
0.402,-0.854,1.001
0.508,-0.918,1.034
0.548,-0.951,1.086
0.631,-0.964,1.099
0.704,-0.995,1.102
0.737,-1.042,1.127
0.773,-1.005,1.143
0.813,-1.047,1.171
0.815,-1.056,1.202
0.788,-1.038,1.209
0.769,-1.055,1.205
0.743,-1.074,1.228
0.665,-1.021,1.226
0.63,-1.017,1.22
0.542,-1.011,1.219
0.449,-0.989,1.226
0.404,-0.963,1.21
0.314,-0.913,1.201
0.261,-0.873,1.197
0.14,-0.842,1.179
0.027,-0.77,1.167
-0.025,-0.678,1.136
-0.12,-0.632,1.094
-0.199,-0.55,1.039
-0.256,-0.476,1.009
-0.296,-0.411,0.92
-0.306,-0.378,0.835
-0.316,-0.327,0.791
-0.314,-0.289,0.697
-0.297,-0.271,0.612
-0.249,-0.271,0.542
-0.212,-0.155,0.567
-0.142,-0.09,0.5
-0.061,-0.099,0.542
-0.027,-0.124,0.612
0.017,0,0.643
0.099,-0.112,0.67
0.143,-0.126,0.722
0.16,-0.153,0.783
0.188,-0.159,0.806
0.209,-0.172,0.863
0.213,-0.18,0.908
0.213,-0.173,0.953
0.194,-0.19,0.966
0.176,-0.197,0.985
0.14,-0.19,1.005
0.102,-0.157,1.011
0.077,-0.122,1.015
0.032,-0.105,1.001
-0.013,-0.076,0.995
-0.038,-0.059,0.984
-0.079,-0.019,0.981
-0.103,0.012,0.977
-0.113,0.031,0.976
-0.126,0.039,0.979
-0.129,0.057,0.984
-0.127,0.067,0.998
-0.112,0.068,1.014
-0.082,0.068,1.023
-0.065,0.064,1.05
-0.03,0.06,1.065
0.004,0.049,1.098
0.023,0.047,1.129
0.062,0.04,1.144
0.079,0.028,1.176
0.108,0.021,1.191
0.122,0.01,1.219
0.128,0.011,1.246
0.129,0.01,1.252
0.127,0.008,1.263
0.124,0.007,1.272
0.122,0.003,1.284
0.113,0.002,1.285
0.097,-0.002,1.281
0.085,-0.001,1.27
0.059,0,1.262
0.048,0.004,1.243
0.03,0.005,1.219
0.014,0.009,1.205
0.007,0.015,1.175
-0.009,0.034,1.161
-0.011,0.05,1.134
-0.013,0.053,1.099
-0.013,0.059,1.08
-0.013,0.061,1.047
-0.008,0.066,1.03
0.124,0.062,1.002
0.013,0.06,0.977
0.027,0.058,0.967
0.035,0.052,0.957
0.05,0.047,0.955
0.064,0.03,0.95
0.065,0.026,0.954
0.064,0.015,0.955
0.063,0.005,0.963
0.066,-0.001,0.976
0.063,-0.011,0.984
0.061,-0.02,1.004
0.06,-0.023,1.013
0.051,-0.029,1.026
0.044,-0.025,1.044
0.032,-0.022,1.054
0.028,-0.017,1.078
0.023,-0.014,1.099
0.02,-0.013,1.106
0.017,-0.015,1.113
0.014,-0.012,1.114
0.018,-0.009,1.111
0.023,-0.012,1.094
0.028,-0.023,1.083
0.03,-0.027,1.075
0.042,-0.029,1.068
0.052,-0.033,1.064
0.059,-0.03,1.063
0.078,-0.037,1.061
0.088,-0.045,1.057
0.104,-0.052,1.052
0.114,-0.068,1.048
0.415,-0.927,0.705
0.437,-0.974,0.666
0.454,-1.074,0.647
0.454,-1.168,0.614
0.449,-1.212,0.591
0.437,-1.292,0.586
0.426,-1.355,0.583
0.405,-1.379,0.59
0.38,-1.408,0.599
0.366,-1.428,0.621
0.336,-1.441,0.643
0.308,-1.471,0.651
0.293,-1.507,0.669
0.259,-1.532,0.688
0.227,-1.589,0.699
0.21,-1.655,0.712
0.181,-1.699,0.709
0.149,-1.806,0.696
0.128,-1.863,0.667
0.099,-1.878,0.631
0.043,-2.103,0.631
0.022,-2.17,0.643
-0.017,-2.146,0.653
-0.046,-2.084,0.667
-0.052,-1.998,0.729
-0.045,-1.945,0.805
-0.02,-1.846,0.841
-0.007,-1.745,0.897
0.012,-1.61,0.931
0.002,-1.535,0.932
-0.033,-1.324,0.928
-0.055,-1.076,0.892
-0.104,-0.814,0.828
-0.176,-0.655,0.792
-0.264,-0.383,0.727
-0.313,0.008,0.662
-0.44,0.21,0.613
-1.049,1.015,0.194
-0.862,1.796,0.085
-0.959,1.994,-0.555
-1.197,2.092,-0.569
-0.52,2.021,0.274
-0.608,1.958,0.862
-0.876,2.215,0.827
-0.976,2.824,0.687
-1.131,3.085,0.686
-1.173,3.565,0.779
-1.157,3.824,1.157
-1.067,3.921,1.411
-0.928,3.873,1.869
-0.851,3.883,2.24
-0.595,3.868,2.408
-0.422,3.547,2.714
0.019,3.382,2.934
0.51,2.933,2.996
0.709,2.426,3.001
1.056,2.176,2.958
1.198,1.81,2.821
1.409,1.652,2.698
1.505,1.397,2.643
1.507,1.263,2.487
1.399,1.264,2.395
1.174,1.318,2.258
1.011,1.399,2.136
0.658,1.431,2.063
0.472,1.583,1.859
-0.011,1.582,1.702
-0.186,1.464,1.499
-0.529,1.462,1.314
-0.769,1.391,1.247
-0.888,1.343,1.187
-0.924,1.364,1.126
-0.954,1.356,1.095
-0.96,1.293,1.043
-0.966,1.255,0.965
-0.955,1.155,0.915
-0.939,1.097,0.845
-0.912,1.062,0.762
-0.892,0.962,0.71
-0.888,0.901,0.614
-0.868,0.889,0.59
-0.838,0.863,0.56
-0.813,0.84,0.568
-0.725,0.766,0.594
-0.662,0.646,0.679
-0.533,0.582,0.768
-0.448,0.439,0.805
-0.423,0.305,0.872
-0.404,0.267,0.931
-0.385,0.19,0.966
-0.38,0.182,1.013
-0.41,0.076,1.016
-0.454,0.011,1.031
-0.463,-0.008,1.047
-0.48,-0.035,1.05
-0.616,-0.072,1.034
-0.508,-0.08,1.004
-0.496,-0.144,0.98
-0.495,-0.168,0.974
-0.489,-0.225,0.94
-0.477,-0.241,0.92
-0.436,-0.282,0.926
-0.401,-0.318,0.917
-0.362,-0.383,0.91
-0.344,-0.4,0.912
-0.305,-0.415,0.91
-0.266,-0.426,0.912
-0.249,-0.441,0.94
-0.191,-0.454,0.961
-0.145,-0.452,0.993
-0.124,-0.509,1.026
-0.085,-0.52,1.039
-0.05,-0.527,1.063
-0.032,-0.501,1.106
-0.047,-0.549,1.045
-0.013,-0.507,1.142
-0.004,-0.442,1.132
0.001,-0.443,1.115
0.026,-0.5,1.1
0.494,-0.645,0.895
0.534,-0.652,0.871
0.556,-0.659,0.851
0.595,-0.662,0.838
0.636,-0.661,0.834
0.656,-0.66,0.833
0.674,-0.659,0.842
0.675,-0.647,0.85
0.675,-0.629,0.878
0.669,-0.609,0.911
0.668,-0.595,0.911
0.65,-0.625,0.966
0.568,-0.627,1.001
0.51,-0.582,1.011
0.488,-0.535,1.031
0.427,-0.524,1.066
0.346,-0.493,1.088
0.307,-0.447,1.111
0.237,-0.42,1.12
0.205,-0.4,1.162
0.13,-0.37,1.159
0.08,-0.347,1.165
0.015,-0.281,1.16
-0.006,-0.27,1.134
-0.048,-0.258,1.109
-0.075,-0.24,1.05
-0.082,-0.227,0.992
-0.095,-0.201,0.963
-0.1,-0.165,0.908
-0.096,-0.135,0.849
-0.081,-0.124,0.822
-0.053,-0.109,0.77
-0.038,-0.1,0.732
0,-0.096,0.723
0.046,-0.089,0.729
0.071,-0.088,0.748
0.119,-0.097,0.76
0.143,-0.111,0.779
0.178,-0.117,0.802
0.205,-0.129,0.816
0.221,-0.146,0.85
0.245,-0.153,0.877
0.253,-0.171,0.887
0.254,-0.194,0.906
0.244,-0.203,0.932
0.224,-0.206,0.944
0.212,-0.205,0.968
0.181,-0.2,0.989
0.143,-0.183,0.993
0.124,-0.176,0.996
0.089,-0.174,0.992
0.057,-0.171,0.984
0.043,-0.166,0.977
0.021,-0.164,0.978
0.003,-0.146,0.98
-0.005,-0.13,0.99
-0.017,-0.125,0.999
-0.029,-0.114,1
-0.035,-0.107,1.007
-0.03,-0.109,1.016
-0.02,-0.116,1.018
-0.011,-0.122,1.025
0.008,-0.125,1.026
0.028,-0.131,1.031
0.037,-0.001,1.038
0.05,-0.114,1.047
0.057,-0.093,1.069
0.077,-0.086,1.084
0.086,-0.082,1.086
0.087,-0.086,1.086
0.084,-0.086,1.088
0.081,-0.084,1.089
0.082,-0.082,1.091
0.089,-0.082,1.093
0.092,-0.082,1.093
0.091,-0.083,1.096
0.085,-0.084,1.098
0.082,-0.081,1.108
0.074,-0.077,1.114
0.07,-0.072,1.112
0.062,-0.068,1.098
0.048,-0.068,1.08
0.045,-0.068,1.074
0.044,-0.074,1.057
0.044,-0.072,1.038
0.041,-0.074,1.032
0.04,-0.072,1.026
0.041,-0.057,1.027
0.044,-0.043,1.039
0.058,-0.041,1.059
0.068,-0.039,1.067
0.068,-0.036,1.074
0.07,-0.035,1.072
0.077,-0.039,1.061
0.078,-0.047,1.052
0.078,-0.055,1.044
0.075,-0.053,1.041
0.077,-0.042,1.048
0.081,-0.036,1.063
0.093,-0.034,1.069
0.106,-0.05,1.085
0.112,-0.06,1.089
0.121,-0.078,1.088
0.125,-0.088,1.086
0.135,-0.094,1.082
0.138,-0.099,1.079
0.142,-0.106,1.076
0.147,-0.112,1.065
0.154,-0.124,1.059
0.16,-0.14,1.05
0.167,-0.148,1.04
0.171,-0.169,1.034
0.172,-0.187,1.022
0.164,-0.193,1.004
0.16,-0.207,0.993
0.155,-0.232,0.969
0.148,-0.242,0.939
0.142,-0.262,0.924
0.14,-0.285,0.903
0.435,-0.955,0.677
0.449,-0.998,0.657
0.477,-1.083,0.649
0.489,-1.181,0.624
0.506,-1.23,0.605
0.52,-1.339,0.593
0.518,-1.455,0.568
0.505,-1.511,0.544
0.488,-1.626,0.534
0.479,-1.737,0.511
0.461,-1.795,0.483
0.437,-1.922,0.469
0.401,-2.031,0.454
0.38,-2.077,0.457
0.329,-2.13,0.468
0.297,-2.142,0.502
0.235,-2.033,0.528
0.138,-2.074,0.543
0.109,-2.01,0.61
0.069,-1.997,0.616
0.027,-1.909,0.651
0.013,-1.832,0.672
-0.007,-1.79,0.692
-0.018,-1.698,0.705
-0.02,-1.59,0.713
-0.023,-1.528,0.703
-0.029,-1.354,0.696
-0.048,-1.167,0.643
-0.06,-0.965,0.606
-0.084,-0.852,0.57
-0.126,-0.596,0.549
-0.177,-0.321,0.497
-0.203,-0.047,0.434
-0.239,0.118,0.215
-0.637,0.852,0.058
-0.445,1.207,0.097
-0.613,1.509,-0.483
-0.794,1.818,-0.44
-0.6,1.979,0.249
-0.252,1.993,0.807
-0.315,2.204,0.824
-0.317,2.268,0.927
-0.232,2.216,1.154
-0.338,2.214,1.24
-0.406,2.299,1.494
-0.512,2.477,1.631
-0.527,2.716,1.969
-0.53,2.869,2.234
-0.46,3.011,2.349
-0.421,2.925,2.557
-0.282,2.815,2.643
-0.165,2.473,2.655
-0.109,2.15,2.629
0.084,1.98,2.611
0.27,1.762,2.599
0.368,1.71,2.593
0.555,1.635,2.586
0.634,1.538,2.496
0.732,1.527,2.419
0.778,1.457,2.28
0.836,1.419,2.112
0.813,1.344,2.044
0.773,1.298,1.835
0.659,1.193,1.76
0.61,1.115,1.562
0.455,1.051,1.41
0.311,0.976,1.35
0.221,0.955,1.272
0.035,0.973,1.224
-0.043,0.967,1.159
-0.19,0.97,1.131
-0.299,0.942,1.135
-0.337,0.905,1.137
-0.402,0.888,1.11
-0.475,0.824,1.094
-0.501,0.748,1.042
-0.533,0.717,1.036
-0.548,0.686,1.017
-0.563,0.676,0.994
-0.551,0.651,0.985
-0.545,0.609,0.959
-0.536,0.581,0.923
-0.548,0.515,0.91
-0.547,0.478,0.895
-0.515,0.457,0.902
-0.451,0.395,0.918
-0.416,0.343,0.956
-0.362,0.319,0.977
-0.334,0.265,1.012
-0.325,0.242,1.031
-0.319,0.209,1.046
-0.322,0.185,1.054
-0.342,0.183,1.054
-0.363,0.184,1.056
-0.374,0.191,1.044
-0.392,0.186,1.024
-0.401,0.174,1.014
-0.407,0.166,0.995
-0.417,0.154,0.99
-0.422,0.141,0.968
-0.423,0.128,0.955
-0.427,0.094,0.943
-0.428,0.064,0.929
-0.419,0.056,0.933
-0.407,0.033,0.922
-0.397,0.014,0.923
-0.371,-0.041,0.92
-0.35,-0.102,0.935
-0.299,-0.132,0.941
-0.239,-0.23,0.961
-0.185,-0.253,1.016
-0.167,-0.266,1.039
-0.148,-0.263,1.064
-0.142,-0.241,1.081
-0.132,-0.259,1.095
-0.124,-0.282,1.085
-0.12,-0.326,1.068
-0.118,-0.344,1.055
-0.112,-0.325,1.036
0.269,-0.911,0.857
0.292,-0.979,0.854
0.32,-1.048,0.847
0.346,-1.124,0.836
0.357,-1.203,0.827
0.381,-1.243,0.83
0.399,-1.319,0.833
0.408,-1.392,0.84
0.408,-1.441,0.844
0.407,-1.464,0.852
0.405,-1.491,0.857
0.404,-1.496,0.867
0.406,-1.51,0.871
0.41,-1.516,0.863
0.399,-1.524,0.857
0.38,-1.527,0.842
0.37,-1.523,0.802
0.357,-1.514,0.758
0.332,-1.509,0.729
0.316,-1.493,0.683
0.291,-1.484,0.637
0.264,-1.456,0.616
0.257,-1.438,0.583
0.244,-1.391,0.571
0.228,-1.33,0.568
0.188,-1.233,0.551
0.137,-1.103,0.565
0.103,-0.938,0.559
0.004,-0.848,0.528
-0.108,-0.66,0.49
-0.214,-0.465,0.479
-0.27,-0.259,0.444
-0.388,-0.144,0.22
-0.794,0.395,0.148
-0.614,0.695,0.347
-0.859,0.866,-0.139
-0.966,1.045,-0.045
-0.812,1.238,0.297
-0.799,1.586,0.54
-0.794,1.581,0.719
-0.783,1.484,0.818
-0.731,1.471,1.069
-0.646,1.522,1.181
-0.61,1.855,1.203
-0.505,2.136,1.237
-0.466,2.278,1.315
-0.434,2.426,1.462
-0.379,2.5,1.424
-0.375,2.45,1.461
-0.329,2.392,1.488
-0.243,2.24,1.505
-0.202,2.169,1.554
-0.086,2.142,1.657
0.041,2.022,1.726
0.125,1.885,1.898
0.293,1.815,1.986
0.366,1.675,2.127
0.473,1.618,2.215
0.558,1.496,2.246
0.592,1.435,2.293
0.65,1.335,2.297
0.664,1.246,2.279
0.653,1.165,2.209
0.627,1.137,2.117
0.574,1.099,2.08
0.539,1.093,1.98
0.46,1.076,1.886
0.354,1.057,1.838
0.284,1.032,1.696
0.142,1,1.574
-0.02,0.996,1.512
-0.088,0.972,1.424
-0.213,0.986,1.375
-0.314,1.016,1.347
-0.354,1.004,1.301
-0.423,1.005,1.281
-0.474,0.987,1.235
-0.522,0.95,1.197
-0.574,0.926,1.161
-0.598,0.924,1.11
-0.628,0.918,1.087
-0.637,0.905,1.057
-0.641,0.892,1.025
-0.624,0.869,1.017
-0.57,0.818,1.011
-0.537,0.785,1.041
-0.473,0.728,1.057
-0.44,0.687,1.08
-0.374,0.67,1.102
-0.321,0.603,1.105
-0.287,0.54,1.103
-0.272,0.51,1.113
-0.245,0.462,1.109
-0.233,0.409,1.098
-0.208,0.388,1.08
-0.201,0.346,1.065
-0.197,0.316,1.038
-0.175,0.305,1.005
-0.164,0.255,0.983
-0.164,0.187,0.933
-0.179,0.156,0.915
-0.177,0.129,0.909
-0.182,0.089,0.871
-0.2,0.066,0.854
-0.196,0,0.833
-0.197,-0.035,0.823
-0.192,-0.116,0.812
-0.214,-0.141,0.851
-0.226,-0.206,0.838
-0.171,-0.197,0.902
-0.167,-0.166,0.898
-0.194,-0.164,0.907
-0.219,-0.199,0.898
-0.213,-0.253,0.92
-0.186,-0.289,0.932
-0.156,-0.336,0.941
-0.111,-0.366,0.945
-0.079,-0.385,0.948
-0.061,-0.404,0.958
0.273,-0.706,1.053
0.286,-0.716,1.063
0.294,-0.719,1.077
0.291,-0.701,1.079
0.286,-0.671,1.086
0.291,-0.659,1.094
0.291,-0.64,1.094
0.283,-0.621,1.088
0.276,-0.603,1.078
0.262,-0.59,1.077
0.26,-0.596,1.079
0.239,-0.54,1.085
0.239,-0.536,1.102
0.232,-0.531,1.109
0.222,-0.52,1.117
0.216,-0.494,1.118
0.197,-0.469,1.115
0.184,-0.449,1.114
0.171,-0.434,1.115
0.157,-0.419,1.108
0.139,-0.389,1.105
0.132,-0.364,1.091
0.123,-0.351,1.072
0.118,-0.338,1.058
0.11,-0.317,1.022
0.092,-0.304,0.878
0.074,-0.272,0.963
0.065,-0.235,0.929
0.044,-0.216,0.902
0.021,-0.18,0.882
0.002,-0.153,0.87
-0.004,-0.123,0.853
0.006,-0.11,0.838
0.015,-0.109,0.819
0.03,-0.11,0.794
0.05,-0.114,0.781
0.059,-0.12,0.755
0.074,-0.118,0.742
0.076,-0.096,0.749
0.073,-0.064,0.772
0.083,-0.054,0.793
0.102,-0.052,0.796
0.109,-0.064,0.804
0.115,-0.073,0.819
0.13,-0.086,0.83
0.142,-0.096,0.853
0.147,-0.105,0.872
0.152,-0.109,0.895
0.142,-0.112,0.915
0.123,-0.093,0.932
0.098,-0.06,0.968
0.089,-0.053,0.998
0.078,-0.045,1.033
0.075,-0.037,1.075
0.083,-0.044,1.092
0.1,-0.071,1.118
0.107,-0.091,1.129
0.12,-0.106,1.133
0.128,-0.107,1.136
0.133,-0.102,1.137
0.137,-0.092,1.135
0.138,-0.082,1.139
0.148,-0.081,1.137
0.155,-0.095,1.134
0.16,-0.102,1.128
0.166,-0.11,1.129
0.171,-0.114,1.137
0.185,-0.116,1.144
0.197,-0.127,1.144
0.2,-0.134,1.138
0.197,-0.127,1.129
0.206,-0.124,1.109
0.206,-0.162,1.114
0.181,-0.162,1.114
0.184,-0.123,1.104
0.188,-0.117,1.099
0.173,-0.126,1.098
0.166,-0.149,1.097
0.161,-0.156,1.094
0.152,-0.151,1.095
0.146,-0.152,1.097
0.145,-0.136,1.093
0.139,-0.134,1.089
0.122,-0.148,1.091
0.115,-0.152,1.071
0.12,-0.156,1.058
0.116,-0.169,1.038
0.112,-0.179,1.025
0.112,-0.2,1.019
0.123,-0.221,1.011
0.129,-0.233,0.996
0.142,-0.257,0.989
0.146,-0.285,0.972
0.153,-0.299,0.958
0.163,-0.325,0.954
0.165,-0.345,0.942
0.167,-0.379,0.935
0.169,-0.414,0.928
0.171,-0.429,0.911
0.176,-0.467,0.904
0.176,-0.506,0.892
0.175,-0.529,0.876
0.178,-0.58,0.87
0.176,-0.619,0.855
0.177,-0.639,0.837
0.181,-0.686,0.83
0.181,-0.737,0.816
0.183,-0.763,0.8
0.189,-0.811,0.793
0.197,-0.867,0.778
0.224,-0.892,0.763
0.256,-0.954,0.761
0.271,-1.017,0.76
0.31,-1.05,0.762
0.351,-1.127,0.76
0.496,-1.195,0.747
0.403,-1.26,0.723
0.428,-1.289,0.695
0.446,-1.347,0.68
0.453,-1.434,0.633
0.445,-1.48,0.606
0.42,-1.494,0.578
0.389,-1.507,0.573
0.369,-1.501,0.565
0.339,-1.491,0.564
0.314,-1.474,0.563
0.29,-1.466,0.558
0.282,-1.477,0.551
0.278,-1.614,0.537
0.288,-1.52,0.511
0.289,-1.557,0.497
0.291,-1.578,0.468
0.287,-1.579,0.437
0.268,-1.569,0.42
0.253,-1.523,0.396
0.228,-1.485,0.399
0.218,-1.394,0.408
0.214,-1.299,0.423
0.183,-1.244,0.42
0.127,-1.118,0.419
0.073,-0.956,0.428
0.016,-0.772,0.441
-0.022,-0.576,0.446
-0.121,-0.474,0.448
-0.199,-0.242,0.452
-0.536,0.301,0.191
-0.331,0.298,0.364
-0.599,0.704,0.18
-0.72,0.984,-0.017
-0.686,1.311,0.274
-0.643,1.547,0.312
-0.752,1.923,0.361
-0.751,2.087,0.556
-0.564,2.022,0.844
-0.602,2.022,0.942
-0.601,2.144,1.078
-0.548,2.27,1.153
-0.59,2.649,1.151
-0.641,2.887,1.188
-0.641,2.986,1.339
-0.619,3.027,1.409
-0.597,2.948,1.556
-0.529,2.899,1.667
-0.416,2.736,1.737
-0.321,2.58,1.878
-0.219,2.384,2.039
-0.007,2.288,2.225
0.171,2.07,2.301
0.329,1.9,2.415
0.391,1.839,2.478
0.484,1.73,2.5
0.537,1.587,2.471
0.554,1.464,2.373
0.539,1.426,2.244
0.456,1.378,2.178
0.399,1.355,2.02
0.283,1.293,1.881
0.139,1.292,1.794
0.055,1.251,1.616
-0.136,1.23,1.408
-0.333,1.199,1.339
-0.405,1.208,1.22
-0.527,1.197,1.182
-0.617,1.156,1.146
-0.663,1.145,1.114
-0.744,1.142,1.077
-0.782,1.097,1.076
-0.792,1.05,1.079
-0.809,1.03,1.078
-0.806,0.985,1.075
-0.787,0.937,1.061
-0.774,0.912,1.049
-0.761,0.87,1.037
-0.745,0.832,1.026
-0.734,0.799,1.013
-0.708,0.785,1.024
-0.653,0.746,1.035
-0.617,0.689,1.06
-0.552,0.653,1.077
-0.505,0.586,1.078
-0.487,0.526,1.07
-0.459,0.505,1.072
-0.434,0.449,1.074
-0.422,0.421,1.061
-0.386,0.402,1.052
-0.353,0.347,1.026
-0.339,0.314,0.987
-0.311,0.233,0.973
-0.29,0.151,0.944
-0.242,0.114,0.914
-0.195,0.042,0.897
-0.169,-0.027,0.883
-0.128,-0.058,0.869
-0.088,-0.111,0.871
-0.081,-0.142,0.921
-0.098,-0.195,0.85
-0.08,-0.216,0.901
-0.05,-0.158,0.985
-0.078,-0.16,0.993
-0.099,-0.183,0.979
-0.132,-0.257,0.972
-0.162,-0.293,0.976
-0.18,-0.294,0.988
-0.191,-0.311,0.988
-0.203,-0.321,0.985
-0.181,-0.355,0.991
-0.149,-0.38,0.996
-0.131,-0.418,0.993
-0.092,-0.432,0.99
-0.03,-0.447,0.975
0.038,-0.46,0.974
0.075,-0.499,0.965
0.153,-0.517,0.952
0.233,-0.548,0.935
0.296,-0.579,0.908
0.321,-0.58,0.883
0.37,-0.578,0.85
0.416,-0.569,0.837
0.331,-0.802,0.936
0.368,-0.841,0.956
0.411,-0.999,0.97
0.443,-0.949,0.981
0.482,-1.018,0.996
0.511,-1.089,0.985
0.53,-1.148,0.988
0.529,-1.215,0.98
0.53,-1.232,0.981
0.574,-1.34,0.986
0.539,-1.385,0.973
0.498,-1.409,0.971
0.528,-1.449,0.963
0.53,-1.495,0.975
0.47,-1.535,0.808
0.512,-1.702,0.937
0.505,-1.682,0.805
0.456,-1.672,0.776
0.448,-1.687,0.74
0.46,-1.763,0.731
0.481,-1.81,0.613
0.363,-1.798,0.533
0.349,-1.778,0.468
0.314,-1.765,0.428
0.248,-1.709,0.382
0.174,-1.613,0.375
0.138,-1.55,0.341
0.065,-1.414,0.328
0.029,-1.282,0.293
-0.002,-1.23,0.317
-0.016,-1.139,0.329
-0.03,-1.036,0.354
-0.043,-0.89,0.378
-0.079,-0.798,0.386
-0.107,-0.623,0.384
-0.135,-0.47,0.371
-0.153,-0.38,0.372
-0.18,-0.177,0.384
-0.21,0.081,0.406
-0.377,0.417,0.425
-0.63,1.161,0.051
-0.474,1.495,0.18
-0.662,1.516,-0.226
-0.86,1.621,0.023
-0.576,1.526,0.703
-0.62,1.547,0.827
-0.923,1.927,0.815
-1.062,2.227,0.932
-1.135,2.49,1.118
-1.238,2.751,1.34
-1.27,2.894,1.594
-1.244,3.091,1.615
-1.157,3.15,1.788
-0.96,3.116,1.968
-0.88,3.037,2.129
-0.56,2.982,2.266
-0.211,2.759,2.333
-0.02,2.459,2.409
0.329,2.297,2.413
0.576,2.052,2.39
0.701,1.894,2.397
0.906,1.827,2.42
1.029,1.672,2.414
1.039,1.536,2.384
0.99,1.437,2.292
0.827,1.409,2.132
0.558,1.37,2.067
0.422,1.325,1.945
0.124,1.304,1.817
-0.18,1.291,1.63
-0.46,1.272,1.632
-0.676,1.282,1.524
-0.759,1.308,1.422
-0.884,1.309,1.313
-0.959,1.285,1.261
-0.99,1.225,1.157
-0.995,1.194,1.061
-0.979,1.131,1.013
-0.961,1.087,0.922
-0.911,1.06,0.866
-0.872,0.998,0.83
-0.857,0.937,0.751
-0.817,0.903,0.718
-0.77,0.835,0.671
-0.739,0.77,0.664
-0.657,0.742,0.676
-0.55,0.668,0.725
-0.499,0.582,0.788
-0.409,0.534,0.822
-0.336,0.431,0.87
-0.302,0.363,0.919
-0.256,0.338,0.939
-0.244,0.282,0.953
-0.244,0.134,0.94
-0.243,0.232,0.928
-0.222,0.231,0.916
-0.201,0.172,0.874
-0.195,0.158,0.868
-0.148,0.107,0.852
-0.131,0.055,0.826
-0.123,0.027,0.8
-0.115,-0.02,0.788
-0.114,-0.061,0.772
-0.109,-0.096,0.751
-0.117,-0.125,0.742
-0.131,-0.148,0.74
-0.135,-0.168,0.752
-0.136,-0.177,0.773
-0.137,-0.21,0.807
-0.113,-0.228,0.859
-0.07,-0.297,0.914
-0.081,-0.388,0.868
0.028,-0.444,1.054
0.032,-0.357,1.082
0.055,-0.363,1.094
0.06,-0.468,1.102
0.08,-0.53,1.126
0.131,-0.527,1.118
0.154,-0.561,1.078
0.476,-0.704,0.834
0.49,-0.715,0.843
0.498,-0.714,0.85
0.493,-0.712,0.856
0.468,-0.707,0.876
0.458,-0.712,0.901
0.431,-0.702,0.921
0.402,-0.712,0.937
0.357,-0.718,0.949
0.328,-0.709,0.968
0.271,-0.691,1.021
0.23,-0.671,1.048
0.208,-0.659,1.085
0.172,-0.659,1.097
0.12,-0.669,1.102
0.072,-0.651,1.128
0.032,-0.608,1.158
0.012,-0.544,1.17
-0.012,-0.553,1.174
-0.03,-0.485,1.159
-0.008,-0.476,1.149
-0.002,-0.464,1.122
0.011,-0.456,1.084
0.042,-0.422,1.066
0.064,-0.399,1.031
0.101,-0.393,0.996
0.13,-0.386,0.977
0.142,-0.375,0.945
0.166,-0.364,0.921
0.187,-0.344,0.919
0.194,-0.331,0.923
0.208,-0.306,0.931
0.215,-0.301,0.946
0.23,-0.299,0.954
0.226,-0.299,0.96
0.221,-0.292,0.977
0.208,-0.287,1.004
0.19,-0.281,1.017
0.169,-0.278,1.04
0.16,-0.267,1.052
0.148,-0.263,1.064
0.127,-0.252,1.064
0.109,-0.238,1.066
0.09,-0.24,0.992
0.061,-0.21,1.062
0.069,-0.213,1.006
-0.012,-0.171,0.946
-0.022,-0.133,0.915
-0.017,-0.122,0.886
-0.019,-0.103,0.873
-0.02,-0.089,0.859
-0.003,-0.074,0.865
0.002,-0.058,0.844
-0.005,-0.054,0.885
0.029,-0.036,0.895
0.041,-0.034,0.915
0.069,-0.027,0.929
0.085,-0.038,0.963
0.121,-0.037,0.996
0.155,-0.044,1.034
0.169,-0.061,1.043
0.177,-0.066,1.057
0.172,-0.086,1.064
0.167,-0.08,1.096
0.164,-0.085,1.081
0.157,-0.094,1.105
0.135,-0.116,1.097
0.121,-0.121,1.09
0.111,-0.123,1.104
0.088,-0.12,1.106
0.066,-0.113,1.112
0.054,-0.119,1.117
0.037,-0.126,1.097
0.035,-0.122,1.099
0.017,-0.142,1.084
0.012,-0.132,1.077
0.02,-0.132,1.073
0.03,-0.133,1.07
0.037,-0.135,1.065
0.041,-0.123,1.057
0.045,-0.117,1.043
0.058,-0.115,1.035
0.063,-0.118,1.02
0.071,-0.118,1.009
0.083,-0.122,1.003
0.098,-0.134,0.997
0.105,-0.145,0.99
0.109,-0.145,0.991
0.11,-0.138,0.992
0.11,-0.133,0.996
0.108,-0.142,0.999
0.104,-0.161,1
0.098,-0.172,1.001
0.095,-0.184,0.999
0.081,-0.197,0.997
0.104,-0.218,1.019
0.102,-0.232,1.029
0.108,-0.231,1.03
0.102,-0.266,0.996
0.081,-0.309,0.977
0.085,-0.327,0.965
0.095,-0.334,0.952
0.091,-0.348,0.941
0.093,-0.373,0.926
0.1,-0.386,0.914
0.111,-0.416,0.909
0.123,-0.455,0.905
0.13,-0.474,0.908
0.141,-0.508,0.913
0.159,-0.539,0.926
0.175,-0.574,0.942
0.189,-0.613,0.958
0.219,-0.636,0.976
0.253,-0.682,0.991
0.294,-0.749,0.995
0.317,-0.826,0.997
0.363,-0.87,0.992
0.408,-0.965,0.989
0.446,-1.071,0.973
0.48,-1.317,0.947
0.521,-1.327,0.921
0.564,-1.45,0.914
0.613,-1.565,0.9
0.633,-1.687,0.893
0.675,-1.753,0.881
0.705,-1.866,0.858
0.726,-1.954,0.843
0.737,-2.032,0.812
0.744,-2.066,0.783
0.753,-2.125,0.768
0.754,-2.188,0.733
0.753,-2.221,0.714
0.744,-2.299,0.67
0.733,-2.338,0.627
0.707,-2.395,0.61
0.678,-2.432,0.575
0.663,-2.466,0.546
0.624,-2.476,0.523
0.561,-2.465,0.513
0.519,-2.385,0.51
0.441,-2.325,0.531
0.374,-2.173,0.557
0.28,-1.983,0.604
0.216,-1.734,0.613
0.053,-1.423,0.634
-0.131,-1.244,0.631
-0.312,-0.854,0.635
-0.479,-0.376,0.644
-0.767,0.168,0.592
-1.114,1.24,0.041
-1.175,1.52,0.068
-2.087,2.319,-0.102
-1.732,2.741,-0.989
-0.558,2.794,0.133
-0.777,2.524,0.67
-1.247,2.745,0.497
-1.439,3.364,0.057
-1.754,3.64,-0.01
-1.983,4.199,0.224
-2.046,4.73,0.546
-2.148,5.047,0.834
-1.938,5.239,1.018
-1.622,4.975,1.44
-1.261,4.459,1.797
-0.642,4.098,2.105
0.03,3.291,2.392
0.68,2.919,2.574
1.162,2.467,2.73
1.348,2.058,2.722
1.722,1.735,2.663
1.769,1.606,2.586
1.735,1.423,2.54
1.525,1.368,2.415
1.355,1.379,2.248
0.936,1.505,2.16
0.711,1.692,2.008
0.217,1.763,1.877
-0.284,1.912,1.81
-0.51,2.067,1.673
-0.903,2.231,1.584
-1.187,2.244,1.523
-1.318,2.275,1.44
-1.372,2.282,1.276
-1.401,2.105,1.203
-1.426,1.987,1.005
-1.416,1.872,0.824
-1.413,1.741,0.745
-1.41,1.639,0.585
-1.365,1.561,0.475
-1.302,1.405,0.439
-1.218,1.275,0.42
-1.157,1.164,0.472
-0.981,1.127,0.565
-0.857,0.907,0.592
-0.742,0.723,0.674
-0.687,0.538,0.72
-0.619,0.468,0.76
-0.589,0.35,0.785
-0.561,0.243,0.83
-0.528,0.138,0.876
-0.519,0.051,0.908
-0.518,-0.027,0.916
-0.514,-0.065,0.965
-0.475,-0.161,0.987
-0.466,-0.222,0.976
-0.454,-0.288,0.953
-0.432,-0.344,0.927
-0.402,-0.369,0.895
-0.363,-0.407,0.874
-0.335,-0.387,0.813
-0.314,-0.423,0.771
-0.266,-0.481,0.755
-0.226,-0.503,0.729
-0.208,-0.522,0.709
-0.161,-0.572,0.711
-0.117,-0.595,0.723
-0.101,-0.622,0.723
-0.053,-0.645,0.745
-0.008,-0.678,0.749
0.029,-0.727,0.75
0.047,-0.767,0.747
0.083,-0.795,0.747
0.111,-0.814,0.744
0.147,-0.822,0.744
0.193,-0.833,0.73
0.215,-0.846,0.719
0.252,-0.851,0.7
0.282,-0.863,0.69
0.299,-0.859,0.679
0.305,-0.845,0.669
0.294,-0.813,0.664
0.294,-0.765,0.662
0.301,-0.738,0.674
0.322,-0.706,0.688
0.33,-0.703,0.696
0.334,-0.673,0.7
0.347,-0.652,0.706
0.349,-0.619,0.71
0.227,-0.874,0.933
0.245,-0.9,0.936
0.257,-0.924,0.938
0.29,-0.939,0.946
0.331,-0.968,0.95
0.356,-1.003,0.954
0.4,-1.023,0.955
0.442,-1.042,0.954
0.47,-1.072,0.923
0.464,-1.125,0.921
0.515,-1.202,0.909
0.558,-1.206,0.95
0.582,-1.22,0.862
0.557,-1.277,0.853
0.558,-1.292,0.837
0.591,-1.294,0.839
0.624,-1.313,0.851
0.627,-1.316,0.871
0.648,-1.314,0.912
0.688,-1.301,0.929
0.715,-1.349,0.98
0.74,-1.328,1.001
0.736,-1.318,0.988
0.722,-1.271,0.942
0.691,-1.246,0.885
0.667,-1.187,0.853
0.653,-1.122,0.792
0.626,-1.094,0.734
0.582,-1.019,0.697
0.502,-0.933,0.614
0.45,-0.797,0.515
0.315,-0.711,0.449
0.142,-0.511,0.309
-0.303,-0.09,-0.11
-0.059,0.13,0.114
-0.592,0.356,-0.23
-0.691,0.401,-0.286
-0.947,1.02,-0.175
-1.488,1.923,-0.211
-1.832,2.465,-0.048
-1.846,2.513,0.429
-1.983,2.701,0.545
-2.015,3.083,0.685
-2.122,3.352,0.747
-2.147,3.769,0.806
-2.099,4.154,1.041
-2.017,4.339,1.262
-1.78,4.299,1.404
-1.392,4.065,1.452
-0.849,3.654,1.572
-0.552,3.368,1.717
0.041,2.819,1.789
0.294,2.57,1.917
0.788,2.442,2.069
1.136,2.2,2.133
1.275,1.949,2.258
1.423,1.854,2.29
1.363,1.683,2.273
1.286,1.633,2.261
1.05,1.612,2.245
0.638,1.652,2.162
0.337,1.652,2.074
0.128,1.519,1.892
-0.316,1.579,1.759
-0.705,1.661,1.716
-0.975,1.764,1.681
-1.177,1.842,1.636
-1.261,1.857,1.579
-1.387,1.838,1.476
-1.462,1.752,1.281
-1.492,1.658,1.246
-1.494,1.618,1.099
-1.459,1.604,0.984
-1.359,1.552,0.931
-1.299,1.458,0.829
-1.179,1.402,0.756
-1.059,1.269,0.725
-0.99,1.157,0.696
-0.854,1.102,0.711
-0.709,1.012,0.728
-0.626,0.895,0.787
-0.476,0.834,0.807
-0.361,0.691,0.866
-0.336,0.512,0.888
-0.316,0.534,0.889
-0.328,0.437,0.873
-0.338,0.389,0.846
-0.366,0.299,0.834
-0.379,0.203,0.812
-0.401,0.163,0.814
-0.437,0.094,0.806
-0.453,-0.003,0.802
-0.427,-0.037,0.844
-0.415,-0.063,0.87
-0.414,-0.102,0.846
-0.39,-0.121,0.838
-0.348,-0.172,0.827
-0.329,-0.201,0.791
-0.267,-0.249,0.778
-0.161,-0.353,0.758
-0.135,-0.383,0.747
-0.042,-0.444,0.739
0.044,-0.494,0.753
0.077,-0.53,0.765
0.129,-0.587,0.776
0.152,-0.628,0.796
0.183,-0.639,0.827
0.2,-0.635,0.833
0.208,-0.642,0.852
0.22,-0.66,0.876
0.232,-0.686,0.924
0.242,-0.71,0.952
0.227,-0.746,0.96
0.213,-0.741,0.987
0.185,-0.738,1.122
0.155,-0.739,1.023
0.14,-0.737,1.037
0.116,-0.733,1.034
0.11,-0.727,1.038
0.2,-0.768,1.075
0.256,-0.789,1.073
0.317,-0.812,1.048
0.347,-0.832,1.001
0.399,-0.844,0.976
0.44,-0.863,0.915
0.453,-0.867,0.846
0.466,-0.871,0.807
0.469,-0.863,0.732
0.467,-0.858,0.677
0.438,-0.835,0.66
0.395,-0.808,0.631
0.376,-0.783,0.63
0.348,-0.786,0.646
0.302,-0.784,0.664
0.239,-0.761,0.712
0.206,-0.723,0.761
0.144,-0.701,0.821
0.084,-0.656,0.855
0.058,-0.618,0.921
0.019,-0.58,0.975
-0.014,-0.541,1.02
-0.041,-0.526,1.052
-0.06,-0.489,1.069
-0.068,-0.445,1.074
-0.063,-0.402,1.065
-0.04,-0.376,1.051
-0.024,-0.346,1.018
0.007,-0.325,0.982
0.047,-0.3,0.963
0.073,-0.299,0.931
0.123,-0.301,0.898
0.165,-0.289,0.883
0.182,-0.277,0.861
0.211,-0.26,0.859
0.227,-0.242,0.863
0.233,-0.238,0.877
0.233,-0.232,0.884
0.234,-0.221,0.908
0.229,-0.212,0.93
0.222,-0.206,0.957
0.212,-0.196,0.972
0.206,-0.188,0.994
0.191,-0.179,1.008
0.162,-0.151,1.02
0.149,-0.135,1.026
0.124,-0.134,1.025
0.119,-0.124,1.048
0.113,-0.118,1.044
0.089,-0.099,1.032
0.081,-0.094,1.007
0.078,-0.102,0.983
0.081,-0.114,0.973
0.077,-0.12,0.953
0.064,-0.117,0.948
0.057,-0.098,0.961
0.044,-0.083,0.992
0.037,-0.066,1.004
0.017,-0.059,1.022
0.002,-0.059,1.045
-0.021,-0.057,1.059
-0.013,-0.059,1.083
-0.007,-0.059,1.096
-0.005,-0.06,1.096
0.122,-0.064,1.092
0.016,-0.066,1.077
0.042,-0.074,1.072
0.074,-0.081,1.066
0.093,-0.098,1.066
0.127,-0.106,1.064
0.143,-0.122,1.064
0.164,-0.126,1.065
0.164,-0.122,1.066
0.164,-0.116,1.074
0.154,-0.116,1.077
0.132,-0.114,1.08
0.119,-0.113,1.093
0.094,-0.116,1.099
0.08,-0.116,1.113
0.073,-0.119,1.116
0.056,-0.135,1.115
0.048,-0.144,1.116
0.033,-0.144,1.116
0.02,-0.139,1.116
0.019,-0.135,1.114
0.011,-0.134,1.109
0.004,-0.144,1.093
0,-0.152,1.068
0,-0.163,1.056
0,-0.165,1.028
0.005,-0.168,0.999
0.012,-0.182,0.987
0.016,-0.202,0.968
0.031,-0.212,0.959
0.04,-0.23,0.941
0.061,-0.241,0.929
0.077,-0.259,0.925
0.085,-0.281,0.919
0.104,-0.291,0.917
0.116,-0.308,0.915
0.12,-0.319,0.912
0.121,-0.346,0.909
0.119,-0.367,0.906
0.116,-0.377,0.912
0.115,-0.393,0.916
0.116,-0.416,0.93
0.115,-0.428,0.94
0.118,-0.455,0.957
0.12,-0.47,0.971
0.119,-0.494,0.978
0.116,-0.514,0.994
0.117,-0.52,1.009
0.117,-0.539,1.029
0.129,-0.562,1.036
0.144,-0.59,1.051
0.163,-0.62,1.059
0.175,-0.653,1.061
0.197,-0.668,1.064
0.223,-0.7,1.067
0.252,-0.732,1.061
0.283,-0.763,1.052
0.295,-0.776,1.041
0.315,-0.809,1.033
0.34,-0.833,1.019
0.35,-0.841,1.008
0.369,-0.859,0.998
0.378,-0.886,0.985
0.391,-0.9,0.971
0.397,-0.93,0.965
0.399,-0.975,0.951
0.4,-0.992,0.935
0.4,-1.021,0.928
0.4,-1.058,0.922
0.392,-1.063,0.913
0.399,-1.1,0.91
0.404,-1.117,0.897
0.405,-1.146,0.889
0.416,-1.198,0.868
0.426,-1.231,0.832
0.427,-1.285,0.812
0.427,-1.362,0.792
0.424,-1.361,0.748
0.425,-1.378,0.725
0.424,-1.423,0.694
0.409,-1.421,0.671
0.404,-1.453,0.635
0.396,-1.451,0.59
0.377,-1.441,0.563
0.37,-1.419,0.521
0.338,-1.373,0.483
0.325,-1.333,0.463
0.317,-1.293,0.419
0.307,-1.286,0.269
0.318,-1.264,0.335
0.324,-1.26,0.29
0.341,-1.24,0.268
0.353,-1.222,0.205
0.346,-1.21,0.124
0.299,-1.209,0.078
0.242,-1.068,-0.023
0.093,-0.994,-0.063
-0.065,-0.746,-0.094
-0.157,-0.37,-0.151
-0.358,-0.178,-0.103
-0.928,0.434,-0.308
-1.142,1.356,-0.342
-1.114,1.664,-0.278
-1.673,1.948,-0.582
-1.675,2.267,-0.151
-1.402,2.271,0.691
-1.641,2.517,0.734
-1.803,2.746,0.795
-1.977,3.505,0.839
-1.932,3.994,1.167
-1.883,4.088,1.524
-1.831,4.037,1.626
-1.772,3.954,1.857
-1.497,3.891,2.09
-1.021,3.686,2.231
-0.752,3.39,2.479
-0.16,3.311,2.59
0.169,2.972,2.73
0.749,2.793,2.844
1.278,2.391,2.904
1.488,2.185,3.005
1.736,2.036,3.032
1.797,1.873,3.017
1.729,1.868,2.909
1.492,1.844,2.835
1.301,1.906,2.616
0.879,1.925,2.481
0.664,1.952,2.216
0.239,1.926,1.989
-0.207,1.852,1.858
-0.419,1.838,1.662
-0.766,1.803,1.588
-0.891,1.815,1.504
-1.051,1.802,1.42
-1.129,1.768,1.382
-1.135,1.726,1.328
-1.084,1.626,1.283
-1.003,1.612,1.21
-0.981,1.443,1.142
-1.013,1.386,1.003
-1.051,1.322,0.871
-1.06,1.216,0.843
-1.045,1.092,0.817
-1.004,1.019,0.818
-0.98,0.818,0.835
-0.957,0.734,0.853
-0.933,0.619,0.872
-0.912,0.518,0.89
-0.869,0.455,0.907
-0.822,0.315,0.911
-0.794,0.205,0.915
-0.729,0.155,0.886
-0.653,0.053,0.868
-0.61,-0.036,0.817
-0.539,-0.065,0.757
-0.475,-0.12,0.724
-0.45,-0.163,0.669
-0.407,-0.177,0.626
-0.371,-0.211,0.61
-0.338,-0.244,0.592
-0.327,-0.261,0.593
-0.3,-0.301,0.597
-0.289,-0.33,0.602
-0.268,-0.342,0.631
-0.235,-0.363,0.654
-0.221,-0.378,0.697
-0.203,-0.395,0.74
-0.179,-0.433,0.766
-0.171,-0.47,0.827
-0.158,-0.485,0.889
-0.144,-0.5,0.918
-0.129,-0.528,0.975
-0.076,-0.559,1
-0.015,-0.622,1.048
0.547,-0.667,0.834
0.559,-0.714,0.858
0.556,-0.723,0.862
0.537,-0.734,0.854
0.519,-0.732,0.855
0.473,-0.697,0.858
0.449,-0.654,0.877
0.406,-0.63,0.882
0.37,-0.634,0.89
0.343,-0.636,0.909
0.306,-0.615,0.912
0.288,-0.597,0.922
0.271,-0.588,0.947
0.228,-0.567,0.955
0.212,-0.538,0.976
0.186,-0.522,0.988
0.166,-0.498,0.992
0.154,-0.475,0.994
0.132,-0.457,1.007
0.108,-0.41,1.011
0.1,-0.365,1.018
0.097,-0.349,1.027
0.107,-0.329,1.026
0.114,-0.321,1.01
0.136,-0.307,0.999
0.147,-0.295,0.976
0.161,-0.288,0.955
0.179,-0.259,0.95
0.188,-0.23,0.943
0.208,-0.221,0.942
0.215,-0.183,0.951
0.218,-0.163,0.951
0.213,-0.15,0.95
0.198,-0.151,0.962
0.204,-0.138,0.955
0.211,-0.139,0.946
0.196,-0.146,0.947
0.177,-0.147,0.953
0.161,-0.123,0.968
0.153,-0.106,0.997
0.136,-0.104,1.026
0.108,-0.112,1.065
0.157,-0.1,1.121
0.096,-0.081,1.067
0.07,-0.085,1.088
0.073,-0.078,1.092
0.082,-0.054,1.101
0.095,-0.042,1.111
0.095,-0.054,1.1
0.092,-0.056,1.091
0.101,-0.052,1.084
0.119,-0.051,1.079
0.122,-0.069,1.092
0.122,-0.068,1.102
0.134,-0.063,1.109
0.134,-0.067,1.112
0.003,-0.075,1.116
0.117,-0.078,1.118
0.108,-0.078,1.135
0.097,-0.066,1.144
0.091,-0.05,1.164
0.09,-0.049,1.175
0.081,-0.051,1.174
0.063,-0.042,1.172
0.061,-0.034,1.172
0.048,-0.035,1.181
0.031,-0.031,1.188
0.032,-0.025,1.183
0.026,-0.02,1.185
0.023,-0.02,1.187
0.025,-0.021,1.177
0.028,-0.027,1.168
0.028,-0.027,1.155
0.024,-0.023,1.139
0.029,-0.023,1.134
0.042,-0.029,1.121
0.048,-0.041,1.117
0.061,-0.05,1.108
0.081,-0.058,1.098
0.1,-0.071,1.082
0.112,-0.094,1.071
0.115,-0.111,1.054
0.118,-0.244,1.046
0.134,-0.136,1.046
0.143,-0.155,1.043
0.145,-0.175,1.036
0.146,-0.186,1.031
0.146,-0.206,1.028
0.144,-0.218,1.024
0.145,-0.226,1.02
0.146,-0.239,1.014
0.145,-0.247,0.998
0.147,-0.272,0.992
0.149,-0.313,0.991
0.151,-0.333,0.975
0.161,-0.354,0.964
0.165,-0.366,0.962
0.163,-0.379,0.945
0.207,-0.4,1.028
0.181,-0.431,0.967
0.177,-0.474,0.992
0.197,-0.493,1.002
0.227,-0.507,1.039
0.244,-0.532,1.028
0.261,-0.58,1.032
0.287,-0.606,1.028
0.325,-0.65,1.005
0.338,-0.679,1.012
0.358,-0.678,0.986
0.391,-0.706,0.972
0.412,-0.725,0.954
0.43,-0.759,0.928
0.457,-0.841,0.923
0.481,-0.866,0.901
0.521,-0.902,0.881
0.539,-0.974,0.831
0.553,-1.067,0.808
0.59,-1.234,0.76
0.61,-1.187,0.727
0.745,-1.323,0.646
0.64,-1.365,0.621
0.643,-1.399,0.603
0.657,-1.44,0.59
0.666,-1.481,0.564
0.669,-1.504,0.543
0.664,-1.555,0.528
0.659,-1.605,0.492
0.648,-1.627,0.455
0.63,-1.688,0.438
0.622,-1.768,0.4
0.617,-1.815,0.352
0.597,-1.915,0.323
0.577,-2.023,0.265
0.564,-2.078,0.216
0.524,-2.191,0.197
0.499,-2.255,0.16
0.43,-2.262,0.151
0.34,-2.208,0.15
0.287,-2.075,0.178
0.186,-2.008,0.201
0.064,-1.847,0.242
-0.067,-1.654,0.271
-0.139,-1.402,0.317
-0.297,-1.244,0.336
-0.474,-0.846,0.409
-0.571,-0.619,0.594
-0.806,0.053,0.698
-1.078,0.85,0.882
-1.165,1.245,1.061
-1.625,2.166,0.957
-1.704,2.629,0.933
-1.366,2.849,0.924
-1.582,2.969,0.551
-1.393,2.993,0.539
-1.224,2.786,0.632
-1.188,2.726,0.438
-1.415,2.806,0.228
-1.529,3.039,0.261
-1.583,3.198,0.424
-1.676,3.725,0.571
-1.524,4.271,1.032
-1.478,4.476,1.611
-1.094,4.558,1.902
-0.608,4.25,2.435
-0.344,3.985,2.902
0.196,3.458,3.098
0.425,3.052,3.379
0.766,2.929,3.529
1.057,2.757,3.517
1.168,2.689,3.404
1.198,2.462,3.282
1.117,2.219,2.906
0.868,2.15,2.467
0.508,2.097,2.005
0.042,2.046,1.867
-0.204,2.016,1.486
-0.682,2.012,1.31
-1.116,2.018,1.165
-1.161,2.041,1.013
-1.378,1.958,0.951
-1.444,1.897,0.893
-1.48,1.84,0.905
-1.44,1.677,0.899
-1.413,1.506,0.895
-1.352,1.415,0.881
-1.25,1.312,0.889
-1.192,1.232,0.86
-1.113,1.175,0.817
-1.068,1.029,0.709
-1.004,0.87,0.629
-0.96,0.705,0.601
-0.878,0.633,0.609
-0.774,0.488,0.627
-0.68,0.323,0.673
-0.643,0.244,0.727
-0.581,0.114,0.759
-0.531,0.007,0.832
-0.513,-0.057,0.902
-0.483,-0.097,0.958
-0.465,-0.174,0.976
-0.447,-0.231,1.003
-0.397,-0.244,1.026
-0.354,-0.283,1.03
-0.281,-0.346,1.018
-0.264,-0.385,1.015
-0.157,-0.421,1.007
-0.111,-0.354,0.979
-0.076,-0.459,0.95
0.028,-0.48,0.93
0.086,-0.499,0.911
0.127,-0.561,0.879
0.17,-0.567,0.844
0.178,-0.554,0.821
0.18,-0.549,0.792
0.165,-0.547,0.792
0.142,-0.531,0.79
0.141,-0.519,0.805
0.147,-0.508,0.818
0.151,-0.523,0.854
0.14,-0.526,0.892
0.14,-0.534,0.904
0.14,-0.517,0.942
0.162,-0.513,0.987
0.189,-0.53,1.017
0.249,-0.546,1.039
0.304,-0.598,1.052
0.333,-0.62,1.069
0.384,-0.623,1.071
0.43,-0.627,1.067
0.457,-0.633,1.054
0.501,-0.637,1.044
0.54,-0.625,1.016
0.56,-0.748,0.969
0.586,-0.636,0.95
0.594,-0.63,0.9
0.594,-0.632,0.843
0.584,-0.637,0.817
0.555,-0.631,0.768
0.188,-0.789,1.047
0.192,-0.815,1.056
0.203,-0.857,1.085
0.203,-0.875,1.067
0.228,-0.91,1.078
0.235,-0.945,1.074
0.235,-0.954,1.063
0.246,-0.966,1.065
0.28,-0.988,1.065
0.296,-1.005,1.056
0.336,-1.015,1.038
0.375,-1.053,1.024
0.417,-1.085,0.996
0.441,-1.127,0.959
0.493,-1.156,0.913
0.55,-1.231,0.884
0.614,-1.33,0.818
0.647,-1.444,0.735
0.709,-1.516,0.647
0.766,-1.664,0.599
0.788,-1.828,0.503
0.803,-1.903,0.411
0.78,-1.999,0.373
0.629,-2.023,0.304
0.666,-1.882,0.248
0.558,-1.939,0.226
0.446,-1.839,0.186
0.376,-1.722,0.161
0.21,-1.656,0.141
0.051,-1.513,0.134
-0.103,-1.365,0.131
-0.196,-1.201,0.109
-0.414,-1.11,0.059
-0.653,-0.965,0.023
-0.855,-0.556,0.233
-0.867,-0.372,0.166
-0.962,-0.138,0.202
-1.426,0.432,0.044
-1.168,0.923,0.449
-1.456,1.272,0.211
-1.378,1.701,0.204
-1.239,2.375,0.625
-1.115,2.723,0.541
-0.993,3.213,0.531
-0.957,3.529,0.278
-0.807,3.542,0.201
-0.764,3.457,0.18
-0.766,3.399,0.304
-0.713,3.288,0.45
-0.673,3.405,0.833
-0.581,3.443,1.293
-0.574,3.467,1.514
-0.561,3.28,1.979
-0.538,3.128,2.446
-0.502,2.773,2.676
-0.468,2.486,3.094
-0.376,2.372,3.335
-0.274,2.155,3.391
-0.144,1.928,3.343
-0.079,1.69,3.124
0.043,1.525,2.814
0.123,1.47,2.484
0.152,1.431,2.337
0.142,1.438,2.037
0.083,1.42,1.704
-0.03,1.312,1.545
-0.108,1.148,1.259
-0.294,1.077,1.093
-0.501,1.045,1.042
-0.662,1.036,1.023
-0.788,1.024,1.022
-0.878,1.032,1.037
-0.895,0.989,1.1
-0.917,0.96,1.133
-0.912,0.919,1.153
-0.897,0.889,1.174
-0.867,0.881,1.18
-0.834,0.866,1.169
-0.818,0.846,1.135
-0.788,0.831,1.093
-0.757,0.784,1.074
-0.745,0.633,1.038
-0.707,0.716,1.031
-0.68,0.652,1.029
-0.627,0.61,1.017
-0.597,0.531,1.009
-0.585,0.474,1.012
-0.57,0.457,1.021
-0.546,0.432,1.035
-0.505,0.394,1.037
-0.489,0.349,1.037
-0.458,0.334,1.048
-0.437,0.325,1.05
-0.426,0.306,1.057
-0.392,0.291,1.053
-0.364,0.276,1.048
-0.325,0.254,1.081
-0.305,0.268,1.093
-0.282,0.214,1.058
-0.248,0.199,1.084
-0.191,0.191,1.054
-0.171,0.151,1.043
-0.145,0.087,1.004
-0.136,0.034,0.972
-0.104,0.012,0.956
-0.092,0.001,0.941
-0.066,-0.023,0.911
-0.03,-0.039,0.897
0.01,-0.068,0.876
0.03,-0.108,0.864
0.062,-0.121,0.872
0.092,-0.13,0.872
0.105,-0.108,0.89
0.129,-0.103,0.894
0.161,-0.081,0.921
0.172,-0.077,0.933
0.191,-0.096,0.93
0.207,-0.123,0.913
0.223,-0.138,0.909
0.282,-0.663,1.104
0.325,-0.736,1.066
0.35,-0.839,1.015
0.401,-0.899,0.953
0.443,-1.01,0.906
0.481,-1.125,0.884
0.52,-1.243,0.838
0.542,-1.394,0.791
0.599,-1.62,0.709
0.655,-1.735,0.619
0.712,-2.002,0.566
0.754,-2.291,0.453
0.786,-2.549,0.363
0.796,-2.667,0.288
0.783,-2.865,0.252
0.747,-3.031,0.214
0.716,-3.091,0.171
0.643,-3.102,0.161
0.598,-3.066,0.164
0.509,-3.03,0.174
0.411,-2.938,0.185
0.356,-2.836,0.212
0.203,-2.764,0.203
0.03,-2.582,0.21
-0.146,-2.354,0.234
-0.369,-2.076,0.253
-0.493,-1.698,0.273
-0.727,-1.163,0.367
-0.957,-0.293,0.609
-1.101,0.061,0.865
-1.636,1.613,0.702
-0.822,2.214,1.172
-0.765,2.698,0.704
-0.441,2.687,1.167
-0.391,2.694,0.899
-0.493,2.972,0.934
-0.519,3.794,1.07
-0.567,4.739,1.217
-0.577,4.881,1.256
-0.594,4.708,1.492
-0.688,4.446,1.752
-0.826,4.242,1.929
-0.788,4.107,2.437
-0.595,4.016,2.99
-0.396,3.831,3.193
-0.168,3.54,3.427
-0.06,3.368,3.457
0.122,2.939,3.394
0.334,2.494,3.175
0.41,2.179,2.895
0.585,1.935,2.519
0.661,1.901,2.104
0.632,1.81,1.912
0.58,1.687,1.525
0.413,1.612,1.235
0.144,1.444,1.093
-0.008,1.239,0.876
-0.374,1.148,0.743
-0.717,1.015,0.744
-0.861,0.95,0.808
-1.085,0.931,0.895
-1.209,0.896,0.921
-1.224,0.807,0.982
-1.226,0.702,0.95
-1.207,0.651,0.908
-1.098,0.661,0.849
-1.06,0.654,0.789
-1.005,0.615,0.757
-0.992,0.563,0.704
-0.99,0.54,0.681
-0.995,0.51,0.674
-0.978,0.501,0.763
-0.942,0.42,0.816
-0.899,0.359,0.928
-0.825,0.305,0.963
-0.773,0.29,1.019
-0.755,0.304,1.059
-0.732,0.31,1.072
-0.706,0.326,1.084
-0.659,0.326,1.096
-0.635,0.315,1.091
-0.585,0.299,1.085
-0.542,0.293,1.078
-0.486,0.273,1.076
-0.436,0.252,1.059
-0.418,0.227,1.035
-0.392,0.215,1.01
-0.38,0.192,1.002
-0.373,0.203,0.997
-0.365,0.217,0.985
-0.343,0.218,0.955
-0.32,0.192,0.936
-0.312,0.161,0.897
-0.309,0.148,0.873
-0.301,0.146,0.855
-0.271,0.116,0.831
-0.259,0.085,0.794
-0.238,0.068,0.79
-0.223,0.066,0.778
-0.202,0.058,0.769
-0.16,0.052,0.78
-0.134,0.009,0.79
-0.083,-0.004,0.793
-0.025,-0.012,0.822
0.052,-0.063,0.857
0.089,-0.106,0.885
0.148,-0.127,0.903
0.186,-0.138,0.913
0.21,-0.135,0.942
0.26,-0.134,0.979
0.285,-0.121,0.982
0.285,-0.111,0.977
0.309,-0.141,0.972
0.309,-0.117,0.963
0.308,-0.128,0.95
0.293,-0.141,0.947
0.281,-0.139,0.944
0.246,-0.114,0.944
0.219,-0.091,0.951
0.348,-0.582,1.116
0.366,-0.624,1.105
0.408,-0.648,1.085
0.45,-0.702,1.071
0.488,-0.763,1.033
0.509,-0.807,0.991
0.554,-0.888,0.965
0.575,-0.981,0.914
0.61,-1.032,0.867
0.633,-1.131,0.845
0.645,-1.225,0.804
0.666,-1.273,0.768
0.679,-1.351,0.75
0.684,-1.423,0.721
0.679,-1.451,0.692
0.67,-1.495,0.679
0.665,-1.544,0.652
0.65,-1.562,0.615
0.637,-1.607,0.596
0.632,-1.681,0.555
0.617,-1.727,0.529
0.603,-1.821,0.473
0.599,-1.932,0.415
0.601,-1.987,0.36
0.608,-2.083,0.337
0.61,-2.245,0.303
0.606,-2.176,0.295
0.597,-2.181,0.287
0.56,-2.163,0.264
0.524,-2.124,0.25
0.49,-2.027,0.242
0.419,-1.974,0.26
0.331,-1.824,0.269
0.283,-1.644,0.31
0.183,-1.534,0.33
0.057,-1.322,0.343
0.002,-1.085,0.416
-0.128,-0.943,0.452
-0.628,-0.5,0.199
-0.491,0.212,0.524
-0.667,0.211,0.178
-0.729,0.454,0.383
-0.672,0.849,0.709
-0.881,1.111,0.551
-1.236,1.618,0.466
-1.39,2.139,0.326
-1.518,2.318,0.419
-1.378,2.304,0.544
-1.336,2.277,0.757
-1.261,2.306,0.796
-1.251,2.579,0.797
-1.291,3.03,0.765
-1.402,3.272,0.896
-1.492,3.627,1.014
-1.526,3.753,1.276
-1.474,3.833,1.558
-1.306,3.704,1.783
-1.181,3.448,2.091
-0.841,3.258,2.238
-0.405,2.757,2.575
-0.189,2.528,2.827
0.236,2.356,2.914
0.452,2.047,3.023
0.713,1.95,3.023
0.931,1.7,2.952
0.986,1.608,2.803
1.004,1.463,2.711
0.984,1.381,2.53
0.912,1.372,2.371
0.749,1.363,2.292
0.63,1.37,2.142
0.359,1.388,1.931
0.102,1.369,1.891
-0.041,1.366,1.729
-0.319,1.374,1.668
-0.445,1.388,1.562
-0.645,1.405,1.467
-0.792,1.445,1.295
-0.9,1.444,1.246
-0.972,1.426,1.197
-1.001,1.384,1.1
-1.033,1.31,1.015
-1.078,1.295,0.926
-1.092,1.26,0.895
-1.1,1.185,0.876
-1.116,1.107,0.851
-1.069,1.017,0.864
-1.019,0.92,0.887
-0.935,0.781,0.914
-0.806,0.72,0.948
-0.673,0.586,0.992
-0.576,0.451,1.012
-0.537,0.272,1.03
-0.48,0.325,1.025
-0.455,0.268,1.011
-0.44,0.177,0.972
-0.386,0.178,0.953
-0.39,0.193,0.915
-0.375,0.188,0.886
-0.328,0.165,0.845
-0.285,0.12,0.822
-0.25,0.059,0.782
-0.231,0.023,0.749
-0.213,-0.015,0.715
-0.207,-0.061,0.684
-0.201,-0.079,0.654
-0.193,-0.096,0.634
-0.17,-0.144,0.648
-0.135,-0.215,0.669
-0.113,-0.274,0.69
-0.059,-0.335,0.728
-0.012,-0.359,0.753
0.048,-0.412,0.813
0.086,-0.472,0.881
0.162,-0.514,0.911
0.216,-0.589,0.968
0.264,-0.661,1.024
0.287,-0.671,1.051
0.312,-0.663,1.1
0.336,-0.667,1.132
0.347,-0.674,1.141
0.349,-0.654,1.157
0.349,-0.633,1.159
0.366,-0.622,1.15
0.373,-0.624,1.14
0.388,-0.607,1.141
0.413,-0.594,1.108
0.427,-0.604,1.056
0.447,-0.607,1.008
0.468,-0.601,0.994
0.609,-0.597,0.968
0.525,-0.591,0.956
0.559,-0.579,0.956
0.575,-0.579,0.961
0.606,-0.578,0.962
0.633,-0.563,0.967
0.643,-0.562,0.968
0.656,-0.558,0.972
0.657,-0.554,0.982
0.665,-0.551,0.984
0.661,-0.552,0.989
0.651,-0.549,0.995
0.622,-0.545,0.996
0.607,-0.531,1.012
0.572,-0.524,1.039
0.53,-0.491,1.053
0.506,-0.476,1.072
0.454,-0.467,1.096
0.397,-0.427,1.127
0.371,-0.385,1.144
0.305,-0.367,1.171
0.239,-0.338,1.185
0.184,-0.306,1.2
0.151,-0.274,1.223
0.131,-0.251,1.225
0.093,-0.24,1.213
0.08,-0.243,1.214
0.077,-0.213,1.215
0.079,-0.154,1.193
0.081,-0.135,1.156
0.092,-0.142,1.11
0.122,-0.156,1.06
0.166,-0.147,1.037
0.211,-0.142,0.987
0.23,-0.151,0.934
0.259,-0.152,0.881
0.274,-0.145,0.858
0.281,-0.137,0.821
0.295,-0.139,0.792
0.292,-0.141,0.779
0.285,-0.14,0.751
0.263,-0.138,0.744
0.235,-0.141,0.737
0.218,-0.149,0.757
0.182,-0.15,0.769
0.173,-0.119,0.782
0.134,-0.117,0.831
0.098,-0.141,0.845
0.102,-0.156,0.894
0.094,-0.169,0.931
0.083,-0.174,0.963
0.065,-0.168,0.997
0.056,-0.151,1.027
0.052,-0.136,1.04
0.052,-0.138,1.06
0.054,-0.143,1.07
0.064,-0.145,1.077
0.071,-0.145,1.08
0.075,-0.135,1.078
0.076,-0.122,1.072
0.077,-0.119,1.057
0.074,-0.118,1.042
0.065,-0.105,1.04
0.067,-0.084,1.041
0.079,-0.075,1.038
0.085,-0.075,1.035
0.087,-0.075,1.03
0.084,-0.071,1.025
0.082,-0.06,1.037
0.08,-0.046,1.042
0.078,-0.043,1.048
0.075,-0.042,1.057
0.074,-0.038,1.068
0.08,-0.038,1.074
0.079,-0.033,1.082
0.078,-0.024,1.1
0.086,-0.025,1.104
0.089,-0.03,1.104
0.092,-0.035,1.098
0.092,-0.049,1.093
0.097,-0.069,1.094
0.098,-0.091,1.089
0.106,-0.101,1.081
0.116,-0.125,1.064
0.125,-0.142,1.058
0.129,-0.152,1.043
0.129,-0.163,1.023
0.128,-0.17,1.003
0.13,-0.192,0.994
0.135,-0.223,0.98
0.139,-0.234,0.974
0.147,-0.258,0.962
0.152,-0.273,0.951
0.166,-0.308,0.945
0.174,-0.354,0.926
0.185,-0.379,0.911
0.195,-0.415,0.906
0.198,-0.438,0.903
0.209,-0.45,0.901
0.222,-0.487,0.899
0.229,-0.532,0.895
0.241,-0.553,0.892
0.251,-0.589,0.893
0.257,-0.607,0.897
0.273,-0.643,0.898
0.282,-0.688,0.899
0.302,-0.713,0.895
0.316,-0.74,0.889
0.343,-0.812,0.902
0.355,-0.831,0.893
0.383,-0.881,0.883
0.395,-0.929,0.875
0.413,-0.956,0.865
0.441,-1.017,0.849
0.471,-1.074,0.833
0.499,-1.143,0.8
0.511,-1.229,0.769
0.529,-1.279,0.732
0.542,-1.37,0.713
0.547,-1.44,0.679
0.552,-1.595,0.652
0.556,-1.53,0.631
0.56,-1.579,0.628
0.569,-1.664,0.595
0.575,-1.754,0.559
0.6,-1.81,0.517
0.625,-1.945,0.488
0.635,-2.074,0.428
0.63,-2.124,0.381
0.596,-2.171,0.357
0.554,-2.221,0.322
0.535,-2.254,0.314
0.469,-2.254,0.307
0.397,-2.257,0.286
0.352,-2.217,0.255
0.253,-2.211,0.237
0.157,-2.162,0.231
0.059,-2.065,0.24
0.004,-1.948,0.237
-0.104,-1.751,0.241
-0.216,-1.746,0.259
-0.323,-1.576,0.272
-0.412,-1.328,0.325
-0.469,-1.027,0.314
-0.561,-0.915,0.305
-0.666,-0.659,0.285
-0.815,-0.409,0.321
-0.916,0.167,0.319
-0.976,0.488,0.251
-1.07,1.041,0.354
-1.312,1.368,0.371
-1.369,1.983,0.337
-1.394,2.359,0.243
-1.523,2.458,0.046
-1.639,2.654,0.096
-1.684,2.901,0.077
-1.737,3.05,0.111
-1.834,3.416,0.243
-1.835,3.715,0.192
-1.849,4.042,0.471
-1.83,4.069,0.533
-1.938,4.27,0.549
-1.774,4.422,0.991
-1.37,4.465,1.419
-0.978,4.443,1.76
-0.447,4.247,1.893
0.171,3.863,2.092
0.484,3.377,2.285
1.051,3.123,2.386
1.499,2.671,2.429
1.809,2.303,2.452
1.96,2.152,2.45
2.053,1.959,2.451
2.015,1.83,2.406
1.814,1.785,2.4
1.641,1.756,2.411
1.219,1.743,2.37
0.765,1.754,2.322
0.51,1.761,2.197
-0.021,1.838,2.149
-0.526,1.999,2.083
-0.707,2.138,1.972
-1.016,2.184,1.839
-1.212,2.236,1.73
-1.265,2.203,1.484
-1.291,2.153,1.357
-1.287,2.032,1.091
-1.28,1.971,0.819
-1.232,1.841,0.697
-1.208,1.703,0.479
-1.161,1.64,0.32
-1.122,1.537,0.263
-1.103,1.426,0.191
-1.05,1.362,0.165
-0.989,1.228,0.168
-0.907,1.104,0.218
-0.85,1.038,0.327
-0.694,0.886,0.391
-0.616,0.695,0.495
-0.523,0.618,0.547
-0.483,0.464,0.582
-0.483,0.353,0.608
-0.513,0.312,0.612
-0.539,0.251,0.61
-0.545,0.218,0.612
-0.547,0.152,0.617
-0.529,0.084,0.622
-0.387,0.001,0.626
-0.481,-0.104,0.633
-0.436,-0.206,0.653
-0.378,-0.257,0.679
-0.337,-0.319,0.673
-0.309,-0.357,0.613
-0.212,-0.413,0.702
-0.189,-0.424,0.713
-0.142,-0.447,0.759
-0.113,-0.477,0.823
-0.055,-0.49,0.884
-0.01,-0.523,0.906
0.016,-0.577,0.944
0.056,-0.593,0.981
0.009,-0.674,0.9
0.061,-0.558,1.009
0.052,-0.54,0.971
-0.12,-0.585,0.953
-0.005,-0.599,0.966
0.013,-0.594,0.964
0.173,-0.809,1.058
0.192,-0.838,1.068
0.218,-0.888,1.051
0.204,-0.971,1.056
0.227,-1.026,1.039
0.253,-1.088,0.996
0.253,-1.17,0.986
0.259,-1.208,0.945
0.292,-1.272,0.92
0.302,-1.363,0.87
0.315,-1.398,0.823
0.358,-1.442,0.808
0.382,-1.519,0.779
0.381,-1.522,0.712
0.402,-1.611,0.648
0.398,-1.66,0.511
0.439,-1.735,0.604
0.437,-1.794,0.512
0.429,-1.837,0.461
0.432,-1.915,0.44
0.423,-1.964,0.41
0.381,-1.972,0.392
0.329,-1.956,0.384
0.303,-1.934,0.366
0.248,-1.877,0.36
0.21,-1.827,0.364
0.188,-1.781,0.356
0.13,-1.749,0.342
0.069,-1.676,0.332
0.037,-1.602,0.305
-0.039,-1.545,0.298
-0.126,-1.379,0.289
-0.16,-1.198,0.3
-0.218,-1.101,0.334
-0.249,-0.92,0.354
-0.292,-0.736,0.388
-0.319,-0.508,0.395
-0.382,-0.396,0.397
-0.429,-0.074,0.393
-0.454,0.183,0.368
-0.853,0.626,0.18
-0.811,0.953,0.321
-0.913,1.486,-0.219
-1.355,1.786,-0.459
-1.287,2.091,0.011
-1.066,2.114,0.296
-1.384,2.137,0.599
-1.606,2.391,0.791
-1.684,2.973,1.113
-1.74,3.792,1.088
-1.663,4.558,1.155
-1.562,4.995,1.52
-1.345,5.066,1.722
-1.087,4.857,2.035
-0.677,4.359,2.169
-0.512,4.092,2.3
0.011,3.519,2.35
0.288,2.809,2.403
0.774,2.529,2.418
1.127,2.239,2.496
1.324,1.924,2.614
1.569,1.639,2.663
1.588,1.524,2.708
1.479,1.373,2.688
1.193,1.313,2.584
0.985,1.336,2.478
0.562,1.421,2.443
0.342,1.521,2.354
-0.065,1.536,2.232
-0.501,1.643,2.128
-0.656,1.596,1.954
-0.95,1.65,1.871
-1.101,1.67,1.743
-1.157,1.639,1.581
-1.21,1.561,1.471
-1.245,1.488,1.282
-1.267,1.475,1.12
-1.268,1.422,1.018
-1.258,1.311,0.854
-1.227,1.272,0.784
-1.2,1.212,0.672
-1.159,1.179,0.574
-1.142,1.099,0.538
-1.136,1.038,0.497
-1.125,1.031,0.485
-1.075,0.924,0.536
-1.057,0.893,0.534
-1.021,0.747,0.554
-1.003,0.691,0.62
-0.879,0.65,0.671
-0.73,0.523,0.808
-0.672,0.464,0.938
-0.564,0.337,0.99
-0.518,0.234,1.028
-0.463,0.187,1.028
-0.439,0.103,0.992
-0.424,0.063,0.958
-0.389,0.009,0.934
-0.368,-0.06,0.879
-0.326,-0.101,0.845
-0.287,-0.16,0.763
-0.261,-0.225,0.716
-0.21,-0.258,0.692
-0.181,-0.303,0.649
-0.171,-0.319,0.616
-0.138,-0.348,0.603
-0.094,-0.376,0.586
-0.069,-0.385,0.582
-0.021,-0.408,0.582
0,-0.424,0.594
0.039,-0.43,0.611
0.081,-0.462,0.624
0.099,-0.492,0.671
0.128,-0.505,0.704
0.141,-0.525,0.768
0.169,-0.531,0.828
0.199,-0.544,0.853
0.217,-0.554,0.899
0.325,-0.58,0.972
0.444,-0.602,1.044
0.511,-0.649,1.052
0.535,-0.68,1.059
0.58,-0.691,1.067
0.603,-0.707,1.07
0.642,-0.711,1.065
0.674,-0.707,1.06
0.695,-0.696,1.052
0.701,-0.693,1.048
0.711,-0.694,1.048
0.711,-0.692,1.036
0.697,-0.695,1.034
0.649,-0.679,1.043
0.626,-0.63,1.064
0.593,-0.608,1.07
0.563,-0.602,1.078
0.548,-0.613,1.068
0.526,-0.629,1.062
0.51,-0.632,1.064
0.467,-0.621,1.064
0.432,-0.601,1.066
0.417,-0.593,1.062
0.381,-0.584,1.054
0.363,-0.569,1.041
0.324,-0.555,1.036
0.287,-0.518,1.034
0.274,-0.504,1.028
0.261,-0.497,1.018
0.254,-0.507,0.992
0.235,-0.503,0.979
0.216,-0.507,0.948
0.206,-0.508,0.923
0.188,-0.495,0.915
0.184,-0.477,0.913
0.183,-0.465,0.919
0.177,-0.449,0.922
0.177,-0.449,0.944
0.188,-0.443,0.965
0.192,-0.409,1.011
0.194,-0.387,1.049
0.187,-0.356,1.064
0.178,-0.349,1.073
0.17,-0.345,1.074
0.169,-0.339,1.085
0.163,-0.332,1.09
0.162,-0.305,1.095
0.161,-0.295,1.101
0.152,-0.286,1.077
0.146,-0.217,1.149
0.165,-0.213,1.11
0.109,-0.236,1.1
0.104,-0.227,1.071
0.093,-0.198,1.04
0.089,-0.157,1.025
0.089,-0.124,0.976
0.083,-0.119,0.915
0.051,-0.1,0.87
0.058,-0.088,0.851
0.07,-0.081,0.843
0.087,-0.072,0.846
0.099,-0.051,0.848
0.105,-0.029,0.856
0.125,-0.02,0.877
0.156,-0.014,0.891
0.172,-0.017,0.91
0.196,-0.025,0.918
0.205,-0.042,0.933
0.218,-0.05,0.938
0.221,-0.053,0.946
0.22,-0.045,0.949
0.21,-0.043,0.957
0.203,-0.046,0.966
0.186,-0.055,0.98
0.171,-0.064,1.001
0.161,-0.078,1.021
0.146,-0.087,1.03
0.122,-0.081,1.053
0.109,-0.07,1.073
0.101,-0.078,1.081
0.081,-0.092,1.08
0.055,-0.095,1.085
0.04,-0.091,1.085
0.034,-0.088,1.084
0.034,-0.1,1.081
0.041,-0.116,1.074
0.039,-0.125,1.071
0.033,-0.106,1.068
0.034,-0.081,1.07
0.038,-0.077,1.067
0.038,-0.083,1.063
0.043,-0.093,1.065
0.048,-0.104,1.072
0.056,-0.106,1.077
0.066,-0.107,1.084
0.078,-0.114,1.086
0.088,-0.132,1.08
0.104,-0.158,1.076
0.114,-0.187,1.067
0.131,-0.202,1.065
0.148,-0.221,1.065
0.161,-0.243,1.067
0.168,-0.267,1.07
0.182,-0.279,1.067
0.196,-0.298,1.065
0.203,-0.321,1.059
0.212,-0.336,1.057
0.221,-0.357,1.056
0.231,-0.376,1.054
0.236,-0.397,1.054
0.25,-0.411,1.05
0.269,-0.443,1.04
0.282,-0.474,1.037
0.298,-0.501,1.034
0.313,-0.529,1.03
0.32,-0.555,1.022
0.337,-0.569,1.024
0.349,-0.6,1.027
0.357,-0.633,1.033
0.375,-0.657,1.053
0.413,-0.683,1.079
0.443,-0.712,1.109
0.461,-0.73,1.139
0.494,-0.771,1.152
0.507,-0.806,1.178
0.519,-0.816,1.199
0.524,-0.84,1.207
0.521,-0.834,1.228
0.518,-0.829,1.191
0.5,-0.895,1.197
0.455,-0.933,1.17
0.488,-0.95,1.171
0.44,-0.93,1.08
0.436,-1.015,1.092
0.447,-1.089,1.08
0.45,-1.141,1.042
0.451,-1.167,0.975
0.43,-1.228,0.936
0.432,-1.281,0.908
0.395,-1.29,0.854
0.362,-1.327,0.797
0.352,-1.326,0.743
0.348,-1.343,0.728
0.31,-1.373,0.674
0.274,-1.368,0.583
0.241,-1.35,0.555
0.248,-1.373,0.514
0.313,-1.387,0.572
0.146,-1.374,0.355
0.103,-1.32,0.333
0.192,-1.349,0.346
0.185,-1.389,0.358
0.176,-1.386,0.249
0.086,-1.369,0.211
0.094,-1.385,0.181
0.097,-1.418,0.145
0.08,-1.459,0.127
0.073,-1.466,0.125
0.047,-1.453,0.136
0.005,-1.389,0.155
-0.017,-1.275,0.197
-0.092,-1.2,0.265
-0.174,-1.028,0.301
-0.218,-0.864,0.359
-0.329,-0.739,0.398
-0.436,-0.471,0.476
-0.474,-0.19,0.555
-0.586,-0.026,0.594
-1.109,0.47,0.38
-1.319,1.457,0.371
-1.35,1.808,0.285
-1.785,1.895,-0.106
-1.757,1.77,0.368
-1.337,1.598,0.927
-1.477,1.657,0.909
-1.586,2.213,0.707
-1.536,2.452,0.708
-1.412,2.938,0.811
-1.328,3.148,0.971
-1.181,3.259,1.142
-0.983,3.378,1.219
-0.804,3.404,1.36
-0.712,3.331,1.484
-0.443,3.276,1.624
-0.104,3.091,1.838
0.27,2.824,1.893
0.464,2.568,2.078
0.747,2.292,2.243
1,2.162,2.449
1.173,1.891,2.531
1.295,1.674,2.69
1.313,1.511,2.793
1.256,1.456,2.816
1.1,1.376,2.793
0.843,1.359,2.704
0.704,1.401,2.548
0.468,1.389,2.372
0.244,1.342,2.274
0.128,1.353,2.029
-0.105,1.307,1.903
-0.299,1.245,1.698
-0.381,1.263,1.522
-0.486,1.313,1.448
-0.526,1.333,1.304
-0.607,1.329,1.171
-0.677,1.288,1.109
-0.732,1.244,0.999
-0.755,1.207,0.92
-0.787,1.191,0.869
-0.795,1.181,0.853
-0.776,1.169,0.824
-0.762,1.126,0.835
-0.756,1.094,0.824
-0.759,1.031,0.8
-0.752,0.945,0.807
-0.722,0.9,0.835
-0.686,0.811,0.862
-0.63,0.754,0.948
-0.596,0.615,1.009
-0.573,0.57,1.08
-0.511,0.49,1.098
-0.494,0.426,1.099
-0.491,0.353,1.059
-0.488,0.317,1.018
-0.467,0.286,1.009
-0.447,0.196,0.957
-0.442,0.182,0.898
-0.397,0.125,0.876
-0.366,0.09,0.847
-0.302,0.068,0.812
-0.24,0.004,0.786
-0.215,-0.032,0.721
-0.185,-0.092,0.699
-0.159,-0.122,0.711
-0.134,-0.133,0.714
-0.115,-0.141,0.729
-0.091,-0.145,0.756
-0.067,-0.163,0.768
-0.035,-0.198,0.787
0.31,-0.586,1.192
0.365,-0.605,1.188
0.406,-0.606,1.159
0.449,-0.607,1.011
0.478,-0.627,1.076
0.488,-0.628,1.02
0.505,-0.623,0.98
0.512,-0.632,0.944
0.502,-0.653,0.923
0.491,-0.657,0.907
0.461,-0.65,0.894
0.442,-0.646,0.896
0.433,-0.664,0.893
0.412,-0.676,0.893
0.384,-0.694,0.896
0.366,-0.697,0.911
0.337,-0.701,0.922
0.32,-0.716,0.947
0.314,-0.73,0.983
0.3,-0.726,1.019
0.29,-0.727,1.046
0.27,-0.739,1.057
0.259,-0.723,1.086
0.245,-0.713,1.111
0.191,-0.698,1.129
0.16,-0.662,1.133
0.123,-0.646,1.138
0.108,-0.638,1.145
0.069,-0.636,1.153
0.053,-0.625,1.157
0.044,-0.592,1.159
0.034,-0.569,1.156
0.036,-0.53,1.159
0.049,-0.516,1.156
0.055,-0.496,1.138
0.055,-0.477,1.126
0.053,-0.454,1.107
0.052,-0.401,1.09
0.056,-0.348,1.068
0.071,-0.324,1.052
0.068,-0.317,0.989
0.138,-0.237,1.072
0.09,-0.277,0.928
0.092,-0.249,0.931
0.154,-0.238,0.909
0.158,-0.189,0.889
0.144,-0.175,0.881
0.137,-0.17,0.878
0.125,-0.162,0.87
0.115,-0.157,0.874
0.11,-0.158,0.885
0.106,-0.16,0.899
0.097,-0.16,0.918
0.077,-0.149,0.927
0.062,-0.145,0.945
0.058,-0.148,0.957
0.053,-0.152,0.961
0.045,-0.138,0.974
0.04,-0.128,0.986
0.05,-0.122,0.989
0.049,-0.125,0.988
0.049,-0.128,0.994
0.035,-0.122,1.003
0.055,-0.091,1.033
0.05,-0.147,1.014
0.084,-0.162,1.035
0.09,-0.138,1.026
0.101,-0.138,1.038
0.102,-0.135,1.045
0.117,-0.136,1.05
0.121,-0.135,1.057
0.122,-0.132,1.066
0.113,-0.125,1.069
0.115,-0.11,1.088
0.117,-0.104,1.097
0.116,-0.108,1.107
0.117,-0.12,1.117
0.119,-0.122,1.124
0.121,-0.121,1.133
0.13,-0.117,1.137
0.137,-0.126,1.15
0.146,-0.133,1.16
0.153,-0.145,1.173
0.163,-0.155,1.181
0.176,-0.166,1.195
0.188,-0.172,1.207
0.2,-0.195,1.207
0.223,-0.209,1.195
0.234,-0.241,1.178
0.241,-0.265,1.166
0.247,-0.297,1.142
0.248,-0.332,1.128
0.248,-0.334,1.116
0.263,-0.359,1.086
0.241,-0.422,1.113
0.237,-0.435,1.092
0.256,-0.455,1.096
0.256,-0.486,1.095
0.259,-0.522,1.1
0.276,-0.541,1.096
0.294,-0.581,1.097
0.312,-0.616,1.102
0.322,-0.627,1.094
0.347,-0.696,1.092
0.344,-0.721,1.1
0.365,-0.731,1.089
0.381,-0.743,1.085
0.381,-0.779,1.086
0.375,-0.812,1.084
0.36,-0.813,1.08
0.364,-0.825,1.056
0.356,-0.886,1.053
0.317,-0.895,1.029
0.325,-0.901,1.001
0.337,-0.919,0.983
0.33,-0.953,0.945
0.327,-0.976,0.898
0.29,-0.974,0.833
0.313,-0.99,0.837
0.319,-1.038,0.763
0.303,-1.057,0.678
0.296,-1.075,0.616
0.308,-1.125,0.594
0.319,-1.184,0.559
0.322,-1.234,0.526
0.302,-1.258,0.465
0.279,-1.265,0.434
0.289,-1.301,0.403
0.29,-1.354,0.368
0.281,-1.398,0.315
0.255,-1.415,0.257
0.235,-1.438,0.234
0.217,-1.457,0.18
0.208,-1.481,0.125
0.182,-1.493,0.095
0.157,-1.505,0.045
0.136,-1.502,-0.006
0.103,-1.519,-0.032
0.061,-1.507,-0.042
-0.031,-1.435,-0.075
-0.083,-1.336,-0.087
-0.191,-1.268,-0.064
-0.308,-1.096,-0.044
-0.367,-0.893,-0.003
-0.746,-0.362,-0.224
-0.683,-0.183,0.076
-0.925,-0.121,-0.161
-0.874,-0.037,0.233
-0.796,0.207,0.371
-0.965,0.805,0.35
-1.154,1.333,0.482
-1.143,1.524,0.692
-1.017,1.73,0.948
-0.861,1.695,0.968
-0.699,1.821,1.006
-0.596,2.116,1.038
-0.584,2.308,0.983
-0.677,2.591,0.956
-0.898,2.934,0.908
-0.996,3.165,0.982
-1.082,3.548,1.089
-1.032,3.799,1.378
-0.942,3.834,1.745
-0.611,3.631,1.955
-0.406,3.12,2.347
0.003,2.853,2.653
0.325,2.496,2.792
0.489,2.348,3.063
0.793,2.063,3.153
0.897,1.802,3.182
1.023,1.683,3.113
1.057,1.492,3.061
1.037,1.389,2.897
0.94,1.358,2.794
0.88,1.303,2.59
0.741,1.278,2.396
0.573,1.229,2.301
0.367,1.189,2.109
0.258,1.136,1.925
0.029,1.11,1.763
-0.21,1.079,1.693
-0.408,1.057,1.582
-0.495,1.062,1.482
-0.639,1.059,1.438
-0.746,1.05,1.36
-0.784,1.04,1.28
-0.823,1.007,1.246
-0.836,0.961,1.164
-0.851,0.944,1.095
-0.857,0.928,1.073
-0.857,0.928,1.027
-0.852,0.926,0.985
-0.847,0.897,0.96
-0.832,0.866,0.93
-0.82,0.855,0.939
-0.758,0.851,0.963
-0.641,0.816,1.007
-0.581,0.648,1.018
-0.487,0.669,1.019
-0.446,0.584,1.031
-0.379,0.546,1.033
-0.333,0.496,1.024
-0.319,0.49,0.998
-0.297,0.486,0.948
-0.258,0.476,0.921
-0.232,0.463,0.867
-0.174,0.447,0.806
-0.13,0.401,0.778
-0.109,0.362,0.716
-0.1,0.351,0.649
-0.08,0.345,0.603
-0.061,0.323,0.586
-0.058,0.312,0.568
-0.066,0.309,0.558
-0.051,0.279,0.571
-0.049,0.226,0.566
-0.067,0.191,0.575
-0.089,0.138,0.614
-0.099,0.095,0.67
-0.125,0.081,0.722
-0.152,0.046,0.746
-0.177,0,0.803
-0.183,-0.024,0.868
-0.172,-0.067,0.9
-0.14,-0.111,0.966
-0.117,-0.148,1.024
-0.071,-0.24,1.048
-0.034,-0.32,1.077
-0.011,-0.37,1.094
0.035,-0.387,1.098
0.081,-0.415,1.092
0.125,-0.449,1.074
0.143,-0.488,1.044
0.174,-0.528,1.011
0.194,-0.543,0.982
0.208,-0.556,0.964
0.205,-0.563,0.931
0.2,-0.567,0.907
0.347,-0.637,1.045
0.486,-0.639,1.083
0.397,-0.643,1.131
0.443,-0.681,1.16
0.449,-0.708,1.171
0.429,-0.714,1.171
0.411,-0.702,1.164
0.398,-0.714,1.145
0.363,-0.722,1.118
0.321,-0.722,1.097
0.269,-0.709,1.083
0.216,-0.697,1.073
